<?xml version="1.0" encoding="UTF-8"?>
<!-- This is a template for a FHIR resource, and needs items (marked with "${}") replacing to make a real instance -->
<!-- The resulting instance is a Bundle of Bundles, each of which is a document (having a Composition, and supporting resources) -->
<!-- 2020-02-22 -->
<!-- This is for FHIR version R5 Preview 2 (May 2020) -->
<Bundle xmlns="http://hl7.org/fhir">
	<type value="collection"/>
	<!-- Repeat at this level per document -->
	<entry>
		<fullUrl value="urn:uuid:2becc651-1a6f-4f9c-83e7-7fa15501358e"/>
		<!-- Top level of each document is a also FHIR Bundle, of type "document"
		 see http://hl7.org/fhir/documents.html, http://hl7.org/fhir/bundle.html
	 	 All the other resources for this document are within this. -->
		<resource>
            <Bundle>
            	<!-- When PUTing, some servers mandate an id here to match the existing id -->
            	<id value="cb427b22-85e9-4dbd-b687-38190bfacb8e"/>
				<!-- document bundles must have an identifier (bdl-9) -->
				<identifier>
					<!-- possibly different identifier types may be needed here -->
					<system value="http://ema.europa.eu/fhir/identifier/documentid"/>
					<value value="${instance.bundle[n].Identifier}"/>
				</identifier>
				<!-- fixed code -->
				<type value="document" /> 
            	<!-- document bundles must have a date (bdl-10) -->
            	<timestamp value="2021-05-04T12:19:50Z"/>
				<!-- a repeating set of entry elements, each with a FHIR resource inside -->
				<entry>
					<!-- fullUrl is mandatory for each entry in document Bundle. It is a random uuid. http://build.fhir.org/bundle.html#bundle-unique -->
					<fullUrl value="urn:uuid:6df00c4b-8f1c-4e63-a795-b1b8b4d9a232"/>
					<resource>
						<!-- the first resource must be Composition (bdl-11) -->
						<!-- This is the overall document structure. -->
						<!-- see definition http://hl7.org/fhir/composition.html, and similar for other resources -->
                        <Composition>
                        	<!-- images if requied within html text of this document -->
							
							<contained>
                                <Binary>
                                	<id value="image0"/>
                                	<!-- example format -->
                                	<contentType value="AbilifyMaintena-h-2755-e_files/image002.png"/>
									<!-- data is base 64 encoded, actual bytes of the image png file -->
                                	<data value="AbilifyMaintena-h-2755-e_files/image002.png"/>
								</Binary>
							</contained>
							<!-- this exension is necessary per image -->
                        	<extension url="http://ema.europa.eu/fhir/extension/dummyValidationReference">
                        		<valueReference>
                        			<reference value="#image0"/>
                        		</valueReference>
                        	</extension>
							
							<contained>
                                <Binary>
                                	<id value="image1"/>
                                	<!-- example format -->
                                	<contentType value="AbilifyMaintena-h-2755-e_files/image003.png"/>
									<!-- data is base 64 encoded, actual bytes of the image png file -->
                                	<data value="AbilifyMaintena-h-2755-e_files/image003.png"/>
								</Binary>
							</contained>
							<!-- this exension is necessary per image -->
                        	<extension url="http://ema.europa.eu/fhir/extension/dummyValidationReference">
                        		<valueReference>
                        			<reference value="#image1"/>
                        		</valueReference>
                        	</extension>
							
							<contained>
                                <Binary>
                                	<id value="image2"/>
                                	<!-- example format -->
                                	<contentType value="AbilifyMaintena-h-2755-e_files/image004.png"/>
									<!-- data is base 64 encoded, actual bytes of the image png file -->
                                	<data value="AbilifyMaintena-h-2755-e_files/image004.png"/>
								</Binary>
							</contained>
							<!-- this exension is necessary per image -->
                        	<extension url="http://ema.europa.eu/fhir/extension/dummyValidationReference">
                        		<valueReference>
                        			<reference value="#image2"/>
                        		</valueReference>
                        	</extension>
							
							<contained>
                                <Binary>
                                	<id value="image3"/>
                                	<!-- example format -->
                                	<contentType value="AbilifyMaintena-h-2755-e_files/image005.png"/>
									<!-- data is base 64 encoded, actual bytes of the image png file -->
                                	<data value="AbilifyMaintena-h-2755-e_files/image005.png"/>
								</Binary>
							</contained>
							<!-- this exension is necessary per image -->
                        	<extension url="http://ema.europa.eu/fhir/extension/dummyValidationReference">
                        		<valueReference>
                        			<reference value="#image3"/>
                        		</valueReference>
                        	</extension>
							
							<contained>
                                <Binary>
                                	<id value="image4"/>
                                	<!-- example format -->
                                	<contentType value="AbilifyMaintena-h-2755-e_files/image004.png"/>
									<!-- data is base 64 encoded, actual bytes of the image png file -->
                                	<data value="AbilifyMaintena-h-2755-e_files/image004.png"/>
								</Binary>
							</contained>
							<!-- this exension is necessary per image -->
                        	<extension url="http://ema.europa.eu/fhir/extension/dummyValidationReference">
                        		<valueReference>
                        			<reference value="#image4"/>
                        		</valueReference>
                        	</extension>
							
							<contained>
                                <Binary>
                                	<id value="image5"/>
                                	<!-- example format -->
                                	<contentType value="AbilifyMaintena-h-2755-e_files/image005.png"/>
									<!-- data is base 64 encoded, actual bytes of the image png file -->
                                	<data value="AbilifyMaintena-h-2755-e_files/image005.png"/>
								</Binary>
							</contained>
							<!-- this exension is necessary per image -->
                        	<extension url="http://ema.europa.eu/fhir/extension/dummyValidationReference">
                        		<valueReference>
                        			<reference value="#image5"/>
                        		</valueReference>
                        	</extension>
							
							<contained>
                                <Binary>
                                	<id value="image6"/>
                                	<!-- example format -->
                                	<contentType value="AbilifyMaintena-h-2755-e_files/image006.png"/>
									<!-- data is base 64 encoded, actual bytes of the image png file -->
                                	<data value="AbilifyMaintena-h-2755-e_files/image006.png"/>
								</Binary>
							</contained>
							<!-- this exension is necessary per image -->
                        	<extension url="http://ema.europa.eu/fhir/extension/dummyValidationReference">
                        		<valueReference>
                        			<reference value="#image6"/>
                        		</valueReference>
                        	</extension>
							
							<contained>
                                <Binary>
                                	<id value="image7"/>
                                	<!-- example format -->
                                	<contentType value="AbilifyMaintena-h-2755-e_files/image007.png"/>
									<!-- data is base 64 encoded, actual bytes of the image png file -->
                                	<data value="AbilifyMaintena-h-2755-e_files/image007.png"/>
								</Binary>
							</contained>
							<!-- this exension is necessary per image -->
                        	<extension url="http://ema.europa.eu/fhir/extension/dummyValidationReference">
                        		<valueReference>
                        			<reference value="#image7"/>
                        		</valueReference>
                        	</extension>
							
							<contained>
                                <Binary>
                                	<id value="image8"/>
                                	<!-- example format -->
                                	<contentType value="AbilifyMaintena-h-2755-e_files/image008.png"/>
									<!-- data is base 64 encoded, actual bytes of the image png file -->
                                	<data value="AbilifyMaintena-h-2755-e_files/image008.png"/>
								</Binary>
							</contained>
							<!-- this exension is necessary per image -->
                        	<extension url="http://ema.europa.eu/fhir/extension/dummyValidationReference">
                        		<valueReference>
                        			<reference value="#image8"/>
                        		</valueReference>
                        	</extension>
							
							<contained>
                                <Binary>
                                	<id value="image9"/>
                                	<!-- example format -->
                                	<contentType value="AbilifyMaintena-h-2755-e_files/image009.png"/>
									<!-- data is base 64 encoded, actual bytes of the image png file -->
                                	<data value="AbilifyMaintena-h-2755-e_files/image009.png"/>
								</Binary>
							</contained>
							<!-- this exension is necessary per image -->
                        	<extension url="http://ema.europa.eu/fhir/extension/dummyValidationReference">
                        		<valueReference>
                        			<reference value="#image9"/>
                        		</valueReference>
                        	</extension>
							
							<contained>
                                <Binary>
                                	<id value="image10"/>
                                	<!-- example format -->
                                	<contentType value="AbilifyMaintena-h-2755-e_files/image010.png"/>
									<!-- data is base 64 encoded, actual bytes of the image png file -->
                                	<data value="AbilifyMaintena-h-2755-e_files/image010.png"/>
								</Binary>
							</contained>
							<!-- this exension is necessary per image -->
                        	<extension url="http://ema.europa.eu/fhir/extension/dummyValidationReference">
                        		<valueReference>
                        			<reference value="#image10"/>
                        		</valueReference>
                        	</extension>
							
							<contained>
                                <Binary>
                                	<id value="image11"/>
                                	<!-- example format -->
                                	<contentType value="AbilifyMaintena-h-2755-e_files/image011.png"/>
									<!-- data is base 64 encoded, actual bytes of the image png file -->
                                	<data value="AbilifyMaintena-h-2755-e_files/image011.png"/>
								</Binary>
							</contained>
							<!-- this exension is necessary per image -->
                        	<extension url="http://ema.europa.eu/fhir/extension/dummyValidationReference">
                        		<valueReference>
                        			<reference value="#image11"/>
                        		</valueReference>
                        	</extension>
							
							<contained>
                                <Binary>
                                	<id value="image12"/>
                                	<!-- example format -->
                                	<contentType value="AbilifyMaintena-h-2755-e_files/image004.png"/>
									<!-- data is base 64 encoded, actual bytes of the image png file -->
                                	<data value="AbilifyMaintena-h-2755-e_files/image004.png"/>
								</Binary>
							</contained>
							<!-- this exension is necessary per image -->
                        	<extension url="http://ema.europa.eu/fhir/extension/dummyValidationReference">
                        		<valueReference>
                        			<reference value="#image12"/>
                        		</valueReference>
                        	</extension>
							
							<contained>
                                <Binary>
                                	<id value="image13"/>
                                	<!-- example format -->
                                	<contentType value="AbilifyMaintena-h-2755-e_files/image005.png"/>
									<!-- data is base 64 encoded, actual bytes of the image png file -->
                                	<data value="AbilifyMaintena-h-2755-e_files/image005.png"/>
								</Binary>
							</contained>
							<!-- this exension is necessary per image -->
                        	<extension url="http://ema.europa.eu/fhir/extension/dummyValidationReference">
                        		<valueReference>
                        			<reference value="#image13"/>
                        		</valueReference>
                        	</extension>
							
							<contained>
                                <Binary>
                                	<id value="image14"/>
                                	<!-- example format -->
                                	<contentType value="AbilifyMaintena-h-2755-e_files/image004.png"/>
									<!-- data is base 64 encoded, actual bytes of the image png file -->
                                	<data value="AbilifyMaintena-h-2755-e_files/image004.png"/>
								</Binary>
							</contained>
							<!-- this exension is necessary per image -->
                        	<extension url="http://ema.europa.eu/fhir/extension/dummyValidationReference">
                        		<valueReference>
                        			<reference value="#image14"/>
                        		</valueReference>
                        	</extension>
							
							<contained>
                                <Binary>
                                	<id value="image15"/>
                                	<!-- example format -->
                                	<contentType value="AbilifyMaintena-h-2755-e_files/image005.png"/>
									<!-- data is base 64 encoded, actual bytes of the image png file -->
                                	<data value="AbilifyMaintena-h-2755-e_files/image005.png"/>
								</Binary>
							</contained>
							<!-- this exension is necessary per image -->
                        	<extension url="http://ema.europa.eu/fhir/extension/dummyValidationReference">
                        		<valueReference>
                        			<reference value="#image15"/>
                        		</valueReference>
                        	</extension>
							
							<contained>
                                <Binary>
                                	<id value="image16"/>
                                	<!-- example format -->
                                	<contentType value="AbilifyMaintena-h-2755-e_files/image012.png"/>
									<!-- data is base 64 encoded, actual bytes of the image png file -->
                                	<data value="AbilifyMaintena-h-2755-e_files/image012.png"/>
								</Binary>
							</contained>
							<!-- this exension is necessary per image -->
                        	<extension url="http://ema.europa.eu/fhir/extension/dummyValidationReference">
                        		<valueReference>
                        			<reference value="#image16"/>
                        		</valueReference>
                        	</extension>
							
							<contained>
                                <Binary>
                                	<id value="image17"/>
                                	<!-- example format -->
                                	<contentType value="AbilifyMaintena-h-2755-e_files/image013.png"/>
									<!-- data is base 64 encoded, actual bytes of the image png file -->
                                	<data value="AbilifyMaintena-h-2755-e_files/image013.png"/>
								</Binary>
							</contained>
							<!-- this exension is necessary per image -->
                        	<extension url="http://ema.europa.eu/fhir/extension/dummyValidationReference">
                        		<valueReference>
                        			<reference value="#image17"/>
                        		</valueReference>
                        	</extension>
							
							<contained>
                                <Binary>
                                	<id value="image18"/>
                                	<!-- example format -->
                                	<contentType value="AbilifyMaintena-h-2755-e_files/image014.png"/>
									<!-- data is base 64 encoded, actual bytes of the image png file -->
                                	<data value="AbilifyMaintena-h-2755-e_files/image014.png"/>
								</Binary>
							</contained>
							<!-- this exension is necessary per image -->
                        	<extension url="http://ema.europa.eu/fhir/extension/dummyValidationReference">
                        		<valueReference>
                        			<reference value="#image18"/>
                        		</valueReference>
                        	</extension>
							
							<contained>
                                <Binary>
                                	<id value="image19"/>
                                	<!-- example format -->
                                	<contentType value="AbilifyMaintena-h-2755-e_files/image015.png"/>
									<!-- data is base 64 encoded, actual bytes of the image png file -->
                                	<data value="AbilifyMaintena-h-2755-e_files/image015.png"/>
								</Binary>
							</contained>
							<!-- this exension is necessary per image -->
                        	<extension url="http://ema.europa.eu/fhir/extension/dummyValidationReference">
                        		<valueReference>
                        			<reference value="#image19"/>
                        		</valueReference>
                        	</extension>
							
							<contained>
                                <Binary>
                                	<id value="image20"/>
                                	<!-- example format -->
                                	<contentType value="AbilifyMaintena-h-2755-e_files/image016.png"/>
									<!-- data is base 64 encoded, actual bytes of the image png file -->
                                	<data value="AbilifyMaintena-h-2755-e_files/image016.png"/>
								</Binary>
							</contained>
							<!-- this exension is necessary per image -->
                        	<extension url="http://ema.europa.eu/fhir/extension/dummyValidationReference">
                        		<valueReference>
                        			<reference value="#image20"/>
                        		</valueReference>
                        	</extension>
							
							<contained>
                                <Binary>
                                	<id value="image21"/>
                                	<!-- example format -->
                                	<contentType value="AbilifyMaintena-h-2755-e_files/image017.png"/>
									<!-- data is base 64 encoded, actual bytes of the image png file -->
                                	<data value="AbilifyMaintena-h-2755-e_files/image017.png"/>
								</Binary>
							</contained>
							<!-- this exension is necessary per image -->
                        	<extension url="http://ema.europa.eu/fhir/extension/dummyValidationReference">
                        		<valueReference>
                        			<reference value="#image21"/>
                        		</valueReference>
                        	</extension>
							
							<contained>
                                <Binary>
                                	<id value="image22"/>
                                	<!-- example format -->
                                	<contentType value="AbilifyMaintena-h-2755-e_files/image018.png"/>
									<!-- data is base 64 encoded, actual bytes of the image png file -->
                                	<data value="AbilifyMaintena-h-2755-e_files/image018.png"/>
								</Binary>
							</contained>
							<!-- this exension is necessary per image -->
                        	<extension url="http://ema.europa.eu/fhir/extension/dummyValidationReference">
                        		<valueReference>
                        			<reference value="#image22"/>
                        		</valueReference>
                        	</extension>
							
							<contained>
                                <Binary>
                                	<id value="image23"/>
                                	<!-- example format -->
                                	<contentType value="AbilifyMaintena-h-2755-e_files/image019.png"/>
									<!-- data is base 64 encoded, actual bytes of the image png file -->
                                	<data value="AbilifyMaintena-h-2755-e_files/image019.png"/>
								</Binary>
							</contained>
							<!-- this exension is necessary per image -->
                        	<extension url="http://ema.europa.eu/fhir/extension/dummyValidationReference">
                        		<valueReference>
                        			<reference value="#image23"/>
                        		</valueReference>
                        	</extension>
							
							<contained>
                                <Binary>
                                	<id value="image24"/>
                                	<!-- example format -->
                                	<contentType value="AbilifyMaintena-h-2755-e_files/image020.png"/>
									<!-- data is base 64 encoded, actual bytes of the image png file -->
                                	<data value="AbilifyMaintena-h-2755-e_files/image020.png"/>
								</Binary>
							</contained>
							<!-- this exension is necessary per image -->
                        	<extension url="http://ema.europa.eu/fhir/extension/dummyValidationReference">
                        		<valueReference>
                        			<reference value="#image24"/>
                        		</valueReference>
                        	</extension>
							
							<contained>
                                <Binary>
                                	<id value="image25"/>
                                	<!-- example format -->
                                	<contentType value="AbilifyMaintena-h-2755-e_files/image021.jpg"/>
									<!-- data is base 64 encoded, actual bytes of the image png file -->
                                	<data value="AbilifyMaintena-h-2755-e_files/image021.jpg"/>
								</Binary>
							</contained>
							<!-- this exension is necessary per image -->
                        	<extension url="http://ema.europa.eu/fhir/extension/dummyValidationReference">
                        		<valueReference>
                        			<reference value="#image25"/>
                        		</valueReference>
                        	</extension>
							
							<contained>
                                <Binary>
                                	<id value="image26"/>
                                	<!-- example format -->
                                	<contentType value="AbilifyMaintena-h-2755-e_files/image022.png"/>
									<!-- data is base 64 encoded, actual bytes of the image png file -->
                                	<data value="AbilifyMaintena-h-2755-e_files/image022.png"/>
								</Binary>
							</contained>
							<!-- this exension is necessary per image -->
                        	<extension url="http://ema.europa.eu/fhir/extension/dummyValidationReference">
                        		<valueReference>
                        			<reference value="#image26"/>
                        		</valueReference>
                        	</extension>
							
							<contained>
                                <Binary>
                                	<id value="image27"/>
                                	<!-- example format -->
                                	<contentType value="AbilifyMaintena-h-2755-e_files/image022.png"/>
									<!-- data is base 64 encoded, actual bytes of the image png file -->
                                	<data value="AbilifyMaintena-h-2755-e_files/image022.png"/>
								</Binary>
							</contained>
							<!-- this exension is necessary per image -->
                        	<extension url="http://ema.europa.eu/fhir/extension/dummyValidationReference">
                        		<valueReference>
                        			<reference value="#image27"/>
                        		</valueReference>
                        	</extension>
							
							<status value="final"/>
							<!-- document type -->
							<type>
								<coding>
									<system value="http://spor.ema.europa.eu/v1/lists/100000155531"/>
									<code value="${document[n].documentTypeCode}"/>
									<display value="${document[n].documentTypeDisplay}"/>
								</coding>
							</type>
							<subject>
								<!-- links to the List resource in this bundle - local url format -->
								<reference value="[]"/> <!-- local url format -->
								<!--reference value="${instance.bundle[n].listUuid}"/--> <!-- uuid url format. Possible alternate format may be neeed -->
							</subject>
                        	<!-- mandatory date of the document -->
                        	<date value="2021-02-01"/>
							<author>
								<identifier>
									<system value="http://spor.ema.europa.eu/v1/locations" />
									<value value="" />
								</identifier>
							</author>
                        	<title value="${document[n].title}"/>
							<relatesTo>
								<code value="appends"/>
								<targetReference>
									<!-- reference to another Composition -->
									<reference value="${document[n].relatesTo}"/>
								</targetReference>
							</relatesTo>
							<!-- main sections of the document, to follow the QRD template -->
	               			
<section>
	
		
			<title value="B. PACKAGE LEAFLET"/>
				<code>
					<coding>
						<system value="http://spor.ema.europa.eu/v1/example-sections"/>
						<code value="${document[n].section[n].subsection[n].typeCode}"/>
						<display value="${document[n].section[n].subsection[n].typeDisplay}"/>
					</coding>
				</code>
		<text>
			<status value="additional"/>
			<div xmlns="http://www.w3.org/1999/xhtml">
		    <p class="TitleA"><span lang="EN-GB">B. PACKAGE LEAFLET</span></p><p align="center" class="MsoNormal" style="text-align:center"><em><b><span lang="EN-GB" style="color:black;font-style:normal"> </span></b></em></p><em><span lang="EN-GB" style="font-size:11.0pt;color:black;font-style:normal"><br clear="all" style="page-break-before:always"/> </span></em><span lang="EN-GB" style="font-size:11.0pt;color:black;font-style:normal"><br clear="all" style="page-break-before:always"/> </span><br clear="all" style="page-break-before:always"/><p align="center" class="MsoNormal" style="text-align:center"><em><b><span lang="EN-GB" style="color:black;font-style:normal">Package leaflet: Information for the user</span></b></em></p><p class="MsoNormal"><em><span lang="EN-GB" style="color:black;font-style:normal"> </span></em></p><p align="center" class="MsoNormal" style="text-align:center"><b><span lang="EN-GB" style="color:black">Abilify Maintena <em><span style="font-style:normal">300 mg powder and solvent for prolonged-release suspension for injection</span></em></span></b></p><p align="center" class="MsoNormal" style="text-align:center"><b><span lang="EN-GB" style="color:black">Abilify Maintena <em><span style="font-style:normal">400 mg powder and solvent for prolonged-release suspension for injection</span></em></span></b></p><p align="center" class="MsoNormal" style="text-align:center"><em><span lang="EN-GB" style="color:black;font-style:normal">aripiprazole</span></em></p><p class="MsoNormal"><em><span lang="EN-GB" style="color:black;font-style:normal"> </span></em></p><p class="MsoNormal"><em><b><span lang="EN-GB" style="color:black;font-style:normal">Read all of this leaflet carefully before you receive this medicine because it contains important information for you.</span></b></em></p><p class="MsoNormal" style="margin-left:28.35pt;text-indent:-28.35pt"><em><span lang="EN-GB" style="color:black;font-style:normal">-        Keep this leaflet. You may need to read it again.</span></em></p><p class="MsoNormal" style="margin-left:28.35pt;text-indent:-28.35pt"><em><span lang="EN-GB" style="color:black;font-style:normal">-        If you have any further questions, ask your doctor or nurse.</span></em></p><p class="MsoNormal" style="margin-left:28.35pt;text-indent:-28.35pt"><em><span lang="EN-GB" style="color:black;font-style:normal">-        If you get any side effects, talk to your doctor or nurse. This includes any possible side effects not listed in this leaflet. See section 4.</span></em></p><p class="MsoNormal" style="margin-left:21.3pt;text-indent:-21.3pt"><em><span lang="EN-GB" style="color:black;font-style:normal"> </span></em></p><p class="MsoNormal" style="margin-left:21.3pt;text-indent:-21.3pt"><em><b><span lang="EN-GB" style="color:black;font-style:normal">What is in this leaflet</span></b></em></p><p class="MsoNormal" style="margin-left:21.3pt;text-indent:-21.3pt"><em><span lang="EN-GB" style="color:black;font-style:normal"> </span></em></p><p class="MsoNormal" style="margin-left:28.35pt;text-indent:-28.35pt"><em><span lang="EN-GB" style="color:black;font-style:normal">1.       What </span></em><span lang="EN-GB" style="color:black">Abilify Maintena <em><span style="font-style: normal">is and what it is used for</span></em></span></p><p class="MsoNormal" style="margin-left:28.35pt;text-indent:-28.35pt"><em><span lang="EN-GB" style="color:black;font-style:normal">2.       What you need to know before you are given </span></em><span lang="EN-GB" style="color:black">Abilify Maintena</span></p><p class="MsoNormal" style="margin-left:28.35pt;text-indent:-28.35pt"><em><span lang="EN-GB" style="color:black;font-style:normal">3.       How </span></em><span lang="EN-GB" style="color:black">Abilify Maintena <em><span style="font-style: normal">is given</span></em></span></p><p class="MsoNormal" style="margin-left:28.35pt;text-indent:-28.35pt"><em><span lang="EN-GB" style="color:black;font-style:normal">4.       Possible side effects</span></em></p><p class="MsoNormal" style="margin-left:28.35pt;text-indent:-28.35pt"><em><span lang="EN-GB" style="color:black;font-style:normal">5.       How to store </span></em><span lang="EN-GB" style="color:black">Abilify Maintena</span></p><p class="MsoNormal" style="margin-left:28.35pt;text-indent:-28.35pt"><em><span lang="EN-GB" style="color:black;font-style:normal">6.       Contents of the pack and other information</span></em></p><p class="MsoNormal"><em><span lang="EN-GB" style="color:black;font-style:normal"> </span></em></p><p class="MsoNormal"><em><span lang="EN-GB" style="color:black;font-style:normal"> </span></em></p><p class="MsoNormal" style="margin-left:28.35pt;text-indent:-28.35pt"><em><b><span lang="EN-GB" style="color:black;font-style:normal">1.       What </span></b></em><b><span lang="EN-GB" style="color:black">Abilify Maintena <em><span style="font-style: normal">is and what it is used for</span></em></span></b></p><p class="MsoNormal"><em><span lang="EN-GB" style="color:black;font-style:normal"> </span></em></p><p class="MsoNormal"><span lang="EN-GB" style="color:black">Abilify Maintena <em><span style="font-style:normal">contains the active substance aripiprazole and belongs to a group of medicines called antipsychotics. It is used to treat schizophrenia - a disease with symptoms such as hearing, seeing or sensing things which are not there, suspiciousness, mistaken beliefs, incoherent speech and behaviour and emotional flatness. People with this condition may also feel depressed, guilty, anxious or tense.</span></em></span></p><p class="MsoNormal"><em><span lang="EN-GB" style="color:black;font-style:normal"> </span></em></p><p class="MsoNormal"><span lang="EN-GB" style="color:black">Abilify Maintena <em><span style="font-style:normal">is intended for adult patients with schizophrenia who are sufficiently stabilised during treatment with oral aripiprazole.</span></em></span></p><p class="MsoNormal"><em><span lang="EN-GB" style="color:black;font-style:normal"> </span></em></p><p class="MsoNormal"><em><span lang="EN-GB" style="color:black;font-style:normal"> </span></em></p>
			</div>
		</text>
		
		
    	    
				
			    
						
		               
<section>
			<title value="2.       What you need to know before you are given Abilify Maintena"/>
				<code>
					<coding>
						<system value="http://spor.ema.europa.eu/v1/example-sections"/>
						<code value="${document[n].section[n].subsection[n].typeCode}"/>
						<display value="${document[n].section[n].subsection[n].typeDisplay}"/>
					</coding>
				</code>
		<text>
			<status value="additional"/>
			<div xmlns="http://www.w3.org/1999/xhtml">
		    <p class="MsoNormal" style="margin-left:28.35pt;text-indent:-28.35pt"><em><b><span lang="EN-GB" style="color:black;font-style:normal">2.       What you need to know before you are given </span></b></em><b><span lang="EN-GB" style="color:black">Abilify Maintena</span></b></p><p class="MsoNormal"><em><span lang="EN-GB" style="color:black;font-style:normal"> </span></em></p>
			</div>
		</text>
		
    	    

			    
		               
<section>
			<title value="Do not use Abilify Maintena"/>
				<code>
					<coding>
						<system value="http://spor.ema.europa.eu/v1/example-sections"/>
						<code value="${document[n].section[n].subsection[n].typeCode}"/>
						<display value="${document[n].section[n].subsection[n].typeDisplay}"/>
					</coding>
				</code>
		<text>
			<status value="additional"/>
			<div xmlns="http://www.w3.org/1999/xhtml">
		    <p class="MsoNormal"><em><b><span lang="EN-GB" style="color:black;font-style:normal">Do not use </span></b></em><b><span lang="EN-GB" style="color:black">Abilify Maintena</span></b></p><p class="MsoNormal" style="margin-left:28.35pt;text-indent:-28.35pt"><em><span lang="EN-GB" style="color:black;font-style:normal">•</span></em><em><span lang="EN-GB" style="color:black;font-style:normal">        if you are allergic to aripiprazole or any of the other ingredients of this medicine (listed in section 6).</span></em></p><p class="MsoNormal"><em><span lang="EN-GB" style="color:black;font-style:normal"> </span></em></p><p class="MsoNormal"><em><b><span lang="EN-GB" style="color:black;font-style:normal">Warnings and precautions</span></b></em></p><p class="MsoNormal"><em><span lang="EN-GB" style="color:black;font-style:normal">Talk to your doctor or nurse before you are given </span></em><span lang="EN-GB" style="color:black">Abilify Maintena<em><span style="font-style:normal">.</span></em></span></p><p class="MsoNormal"><em><span lang="EN-GB" style="color:black;font-style:normal"> </span></em></p><p class="MsoNormal"><em><span lang="EN-GB" style="color:black;font-style:normal">Suicidal thoughts and behaviours have been reported during aripiprazole treatment. Tell your doctor immediately if you are having any thoughts or feelings about hurting yourself.</span></em></p><p class="MsoNormal"><em><span lang="EN-GB" style="color:black;font-style:normal"> </span></em></p><p class="MsoNormal"><em><span lang="EN-GB" style="color:black;font-style:normal">Before treatment with </span></em><span lang="EN-GB" style="color:black">Abilify Maintena<em><span style="font-style:normal">, tell your doctor if you suffer from</span></em></span></p><p class="MsoNormal"><em><span lang="EN-GB" style="color:black;font-style:normal"> </span></em></p><p class="MsoNormal" style="margin-left:28.35pt;text-indent:-28.35pt"><em><span lang="EN-GB" style="color:black;font-style:normal">•        an acutely agitated state or a severely psychotic state</span></em></p><p class="MsoNormal" style="margin-left:28.35pt;text-indent:-28.35pt"><em><span lang="EN-GB" style="color:black;font-style:normal">•        heart problems or have a history of stroke, especially if you know that you have other risks factors for stroke</span></em></p><p class="MsoNormal" style="margin-left:28.35pt;text-indent:-28.35pt"><em><span lang="EN-GB" style="color:black;font-style:normal">•        high blood sugar (characterised by symptoms such as excessive thirst, passing of large amounts of urine, increase in appetite and feeling weak) or family history of diabetes</span></em></p><p class="MsoNormal" style="margin-left:28.35pt;text-indent:-28.35pt"><em><span lang="EN-GB" style="color:black;font-style:normal">•        fits (seizures) since your doctor may want to monitor you more closely</span></em></p><p class="MsoNormal" style="margin-left:28.35pt;text-indent:-28.35pt"><em><span lang="EN-GB" style="color:black;font-style:normal">•        involuntary, irregular muscle movements, especially in the face</span></em></p><p class="MsoNormal" style="margin-left:28.35pt;text-indent:-28.35pt"><em><span lang="EN-GB" style="color:black;font-style:normal">•        </span></em><span lang="EN-GB" style="color:black">experience a combination of fever, sweating, faster breathing, muscle stiffness and drowsiness or sleepiness (may be signs of neuroleptic malignant syndrome)</span></p><p class="MsoNormal" style="margin-left:28.35pt;text-indent:-28.35pt"><em><span lang="EN-GB" style="color:black;font-style:normal">•        </span></em><span lang="EN-GB" style="color:black">dementia (loss of memory and other mental abilities) especially if you are elderly</span></p><p class="MsoNormal" style="margin-left:28.35pt;text-indent:-28.35pt"><em><span lang="EN-GB" style="color:black;font-style:normal">•        cardiovascular diseases (diseases of the heart and circulation), family history of cardiovascular disease, stroke or "mini" stroke, abnormal blood pressure</span></em></p><p class="MsoNormal" style="margin-left:28.35pt;text-indent:-28.35pt"><em><span lang="EN-GB" style="color:black;font-style:normal">•        irregular heart beat or if someone else in your family has a history of irregular heart beat (including so called QT prolongation seen with ECG monitoring).</span></em></p><p class="MsoNormal" style="margin-left:28.35pt;text-indent:-28.35pt"><em><span lang="EN-GB" style="color:black;font-style:normal">•        blood clots, or family history of blood clots, as antipsychotics have been associated with formation of blood clots</span></em></p><p class="MsoNormal" style="margin-left:28.35pt;text-indent:-28.35pt"><em><span lang="EN-GB" style="color:black;font-style:normal">•        </span></em><span lang="EN-GB" style="color:black">have any difficulty in swallowing</span></p><p class="MsoNormal" style="margin-left:28.35pt;text-indent:-28.35pt"><em><span lang="EN-GB" style="color:black;font-style:normal">•        past experience with excessive gambling</span></em></p><p class="MsoNormal" style="margin-left:28.35pt;text-indent:-28.35pt"><em><span lang="EN-GB" style="color:black;font-style:normal">•        severe liver problems.</span></em></p><p class="MsoNormal"><em><span lang="EN-GB" style="color:black;font-style:normal"> </span></em></p><p class="MsoNormal"><em><span lang="EN-GB" style="color:black;font-style:normal">If you notice you are gaining weight, develop unusual movements, experience sleepiness that interferes with normal daily activities, any difficulty in swallowing or have allergic symptoms, please talk to your doctor immediately.</span></em></p><p class="MsoNormal"><span lang="EN-GB"> </span></p><p class="MsoNormal"><span lang="EN-GB">Tell your doctor if you or your family/carer notices that you are developing urges or cravings to behave in ways that are unusual for you and you cannot resist the impulse, drive or temptation to carry out certain activities that could harm yourself or others. These are called impulse control disorders and can include behaviours such as addictive gambling, excessive eating or spending, an abnormally high sex drive or preoccupation with an increase in sexual thoughts or feelings.</span></p><p class="MsoNormal"><u><span lang="EN-GB">Your doctor may need to adjust or stop your dose.</span></u></p><p class="MsoNormal"><u><span lang="EN-GB"><span style="text-decoration:none"> </span></span></u></p><p class="MsoNormal"><span lang="EN-GB">Aripiprazole may cause sleepiness, fall in blood pressure when standing up, dizziness and changes in your ability to move and balance, which may lead to falls. Caution should be taken, particularly if you are an elderly patient or have some debility.</span></p><p class="MsoNormal"><span lang="EN-GB"> </span></p>
			</div>
		</text>
		
    	    
		
</section>
			    
    	    

			    
		               
<section>
			<title value="Children and adolescents"/>
				<code>
					<coding>
						<system value="http://spor.ema.europa.eu/v1/example-sections"/>
						<code value="${document[n].section[n].subsection[n].typeCode}"/>
						<display value="${document[n].section[n].subsection[n].typeDisplay}"/>
					</coding>
				</code>
		<text>
			<status value="additional"/>
			<div xmlns="http://www.w3.org/1999/xhtml">
		    <p class="MsoNormal"><b><span lang="EN-GB" style="color:black">Children and adolescents</span></b></p><p class="MsoNormal"><span lang="EN-GB" style="color:black">Do not use this medicine in children and adolescents under 18 years of age. It is not known if it is safe and effective in these patients.</span></p><p class="MsoNormal"><em><span lang="EN-GB" style="color:black;font-style:normal"> </span></em></p>
			</div>
		</text>
		
    	    
		
</section>
			    
    	    

			    
		               
<section>
			<title value="Other medicines and Abilify Maintena"/>
				<code>
					<coding>
						<system value="http://spor.ema.europa.eu/v1/example-sections"/>
						<code value="${document[n].section[n].subsection[n].typeCode}"/>
						<display value="${document[n].section[n].subsection[n].typeDisplay}"/>
					</coding>
				</code>
		<text>
			<status value="additional"/>
			<div xmlns="http://www.w3.org/1999/xhtml">
		    <p class="MsoNormal"><em><b><span lang="EN-GB" style="color:black;font-style:normal">Other medicines and </span></b></em><b><span lang="EN-GB" style="color:black">Abilify Maintena</span></b></p><p class="MsoNormal"><em><span lang="EN-GB" style="color:black;font-style:normal">Tell your doctor if you are taking, have recently taken or might take any other medicines.</span></em></p><p class="MsoNormal"><em><span lang="EN-GB" style="color:black;font-style:normal"> </span></em></p><p class="MsoNormal"><em><span lang="EN-GB" style="color:black;font-style:normal">Blood pressure-lowering medicines:</span></em><span lang="EN-GB" style="color:black"> Abilify Maintena <em><span style="font-style:normal">may increase the effect of medicines used to lower the blood pressure. Be sure to tell your doctor if you take a medicine to keep your blood pressure under control.</span></em></span></p><p class="MsoNormal"><em><span lang="EN-GB" style="color:black;font-style:normal"> </span></em></p><p class="MsoNormal"><em><span lang="EN-GB" style="color:black;font-style:normal">Receiving </span></em><span lang="EN-GB" style="color:black">Abilify Maintena <em><span style="font-style:normal">with some medicines may mean the doctor will need to change your dose of </span></em>Abilify Maintena <em><span style="font-style: normal">or the other medicines. It is especially important to mention the following to your doctor:</span></em></span></p><p class="MsoNormal"><em><span lang="EN-GB" style="color:black;font-style:normal"> </span></em></p><p class="MsoNormal" style="margin-left:28.35pt;text-indent:-28.35pt"><em><span lang="EN-GB" style="color:black;font-style:normal">•        medicines to correct heart rhythm (such as quinidine, amiodarone, flecainide)</span></em></p><p class="MsoNormal" style="margin-left:28.35pt;text-indent:-28.35pt"><em><span lang="EN-GB" style="color:black;font-style:normal">•        antidepressants or herbal remedy used to treat depression and anxiety</span></em><span class="berschrift4Zchn"><i><span lang="EN-GB" style='font-family:"Times New Roman",serif; color:black'> </span></i></span><span class="berschrift4Zchn"><span lang="EN-GB" style='font-family:"Times New Roman",serif;color:black;font-weight:normal'>(</span></span><em><span lang="EN-GB" style="color:black;font-style:normal">such as fluoxetine, paroxetine, St. John's Wort)</span></em></p><p class="MsoNormal" style="margin-left:28.35pt;text-indent:-28.35pt"><em><span lang="EN-GB" style="color:black;font-style:normal">•        antifungal medicines (such as ketoconazole, itraconazole)</span></em></p><p class="MsoNormal" style="margin-left:28.35pt;text-indent:-28.35pt"><em><span lang="EN-GB" style="color:black;font-style:normal">•        certain medicines to treat HIV infection (such as efavirenz, nevirapine, and protease inhibitors e.g. indinavir, ritonavir)</span></em></p><p class="MsoNormal" style="margin-left:28.35pt;text-indent:-28.35pt"><em><span lang="EN-GB" style="color:black;font-style:normal">•        anticonvulsants used to treat epilepsy (such as </span></em><span class="BMSHeading3Char"><span lang="EN-GB" style='font-family:"Times New Roman",serif;font-weight:normal'>carbamazepine, phenytoin,</span></span><span class="BMSHeading3Char"><i><span lang="EN-GB" style='font-family:"Times New Roman",serif'> </span></i></span><em><span lang="EN-GB" style="color:black;font-style:normal">phenobarbital)</span></em></p><p class="MsoNormal" style="margin-left:28.35pt;text-indent:-28.35pt"><em><span lang="EN-GB" style="color:black;font-style:normal">•        certain antibiotics used to treat tuberculosis (rifabutin, rifampicin)</span></em></p><p class="MsoNormal" style="margin-left:28.35pt;text-indent:-28.35pt"><em><span lang="EN-GB" style="color:black;font-style:normal">•        medicines that are known to prolong QT prolongation.</span></em></p><p class="EMEABodyText"><span lang="EN-GB" style="font-size:11.0pt"> </span></p><p class="EMEABodyText"><span lang="EN-GB" style="font-size:11.0pt">These medicines may increase the risk of side effects or reduce the effect of <span style="color:black">Abilify Maintena</span>; if you get any unusual symptom taking any of these medicines together with <span style="color:black">Abilify Maintena</span>, you should see your doctor.</span></p><p class="EMEABodyText"><span lang="EN-GB" style="font-size:11.0pt"> </span></p><p class="EMEABodyText"><span lang="EN-GB" style="font-size:11.0pt;color:black">Medicines that increase the level of serotonin </span><span class="BMSHeading3Char"><span lang="EN-GB" style='font-size:11.0pt;font-family:"Times New Roman",serif; font-weight:normal'>are typically used in conditions including depression, generalised anxiety disorder, obsessive-compulsive disorder (OCD) and social phobia as well as migraine and pain</span></span><span lang="EN-GB" style="font-size:11.0pt;color:black">:</span></p><p class="EMEABodyText"><span lang="EN-GB" style="font-size:11.0pt"> </span></p><p class="EMEABodyText" style="margin-left:28.35pt;text-indent:-28.35pt"><em><span lang="EN-GB" style="font-size:11.0pt;color:black;font-style:normal">•        </span></em><span lang="EN-GB" style="font-size:11.0pt">triptans, tramadol and tryptophan used for conditions including depression, generalised anxiety disorder, obsessive compulsive disorder (OCD) and social phobia as well as migraine and pain</span></p><p class="EMEABodyText" style="margin-left:28.35pt;text-indent:-28.35pt"><em><span lang="EN-GB" style="font-size:11.0pt;color:black;font-style:normal">•        </span></em><span lang="EN-GB" style="font-size:11.0pt;color:black">SSRI s (such as paroxetine and fluoxetine) used for depression, OCD, panic and anxiety</span></p><p class="EMEABodyText" style="margin-left:28.35pt;text-indent:-28.35pt"><em><span lang="EN-GB" style="font-size:11.0pt;color:black;font-style:normal">•        </span></em><span lang="EN-GB" style="font-size:11.0pt;color:black">other anti-depressants (such as venlafaxine and tryptophan) used in major depression</span></p><p class="EMEABodyText" style="margin-left:28.35pt;text-indent:-28.35pt"><em><span lang="EN-GB" style="font-size:11.0pt;color:black;font-style:normal">•        </span></em><span lang="EN-GB" style="font-size:11.0pt;color:black">tricyclic’s (such as clomipramine and amitriptyline) used for depressive illness</span></p><p class="EMEABodyText" style="margin-left:28.35pt;text-indent:-28.35pt"><em><span lang="EN-GB" style="font-size:11.0pt;color:black;font-style:normal">•        </span></em><span lang="EN-GB" style="font-size:11.0pt;color:black">St John’s Wort (<i>Hypericum perforatum</i>) used as a herbal remedy for mild depression</span></p><p class="EMEABodyText" style="margin-left:28.35pt;text-indent:-28.35pt"><em><span lang="EN-GB" style="font-size:11.0pt;color:black;font-style:normal">•        </span></em><span lang="EN-GB" style="font-size:11.0pt;color:black">painkillers (such as tramadol and pethidine) used for pain relief</span></p><p class="EMEABodyText" style="margin-left:28.35pt;text-indent:-28.35pt"><em><span lang="EN-GB" style="font-size:11.0pt;color:black;font-style:normal">•        </span></em><span lang="EN-GB" style="font-size:11.0pt;color:black">triptans (such as sumatriptan and zolmitripitan) used for treating migraine.</span></p><p class="MsoNormal"><em><span lang="EN-GB" style="color:black;font-style:normal"> </span></em></p><p class="EMEABodyText"><span lang="EN-GB" style="font-size:11.0pt">These medicines may increase the risk of side effects; if you get any unusual symptom taking any of these medicines together with <span style="color:black">Abilify Maintena</span>, you should see your doctor.</span></p><p class="EMEABodyText"><span lang="EN-GB" style="font-size:11.0pt"> </span></p><p class="MsoNormal"><b><span lang="EN-GB" style="color:black">Abilify Maintena <em><span style="font-style:normal">with alcohol</span></em></span></b></p><p class="MsoNormal"><em><span lang="EN-GB" style="color:black;font-style:normal">Alcohol should be avoided.</span></em></p><p class="MsoNormal"><em><span lang="EN-GB" style="color:black;font-style:normal"> </span></em></p><p class="MsoNormal"><em><b><span lang="EN-GB" style="color:black;font-style:normal">Pregnancy, breast-feeding and fertility</span></b></em></p><p class="MsoNormal"><em><span lang="EN-GB" style="color:black;font-style:normal">If you are pregnant or breast-feeding, think you may be pregnant or are planning to have a baby, ask your doctor for advice before receiving this medicine.</span></em></p><p class="MsoNormal"><em><span lang="EN-GB" style="color:black;font-style:normal"> </span></em></p><p class="MsoNormal"><em><b><span lang="EN-GB" style="color:black;font-style:normal">You should not be given </span></b></em><b><span lang="EN-GB" style="color:black">Abilify Maintena <em><span style="font-style:normal">if you are pregnant unless you have</span></em></span></b><em><span lang="EN-GB" style="color:black;font-style: normal"> discussed this with your doctor. </span></em><span lang="EN-GB" style="color:black">Be sure to tell your doctor immediately if you are pregnant, think you may be pregnant, or if you are planning to become pregnant.</span></p><p class="MsoNormal"><em><span lang="EN-GB" style="color:black;font-style:normal"> </span></em></p><p class="MsoNormal"><em><span lang="EN-GB" style="color:black;font-style:normal">The following symptoms may occur in new-born babies, of mothers that have received </span></em><span lang="EN-GB" style="color:black">Abilify Maintena <em><span style="font-style: normal">in the last trimester (last three months of their pregnancy):</span></em></span></p><p class="MsoNormal"><em><span lang="EN-GB" style="color:black;font-style:normal">shaking, muscle stiffness and/or weakness, sleepiness, agitation, breathing problems, and difficulty in feeding.</span></em></p><p class="MsoNormal"><em><span lang="EN-GB" style="color:black;font-style:normal"> </span></em></p><p class="MsoNormal"><em><span lang="EN-GB" style="color:black;font-style:normal">If your baby develops any of these symptoms you need to contact your doctor.</span></em></p><p class="MsoNormal"><em><span lang="EN-GB" style="color:black;font-style:normal"> </span></em></p><p class="MsoNormal"><em><span lang="EN-GB" style="color:black;font-style:normal">If you are receiving </span></em><span lang="EN-GB" style="color:black">Abilify Maintena<em><span style="font-style:normal">, your doctor will discuss with you whether you should breast-feed considering the benefit to you of your therapy and the benefit to your baby of breast-feeding. You should not do both. Talk to your doctor about the best way to feed your baby if you are receiving </span></em>Abilify Maintena<em><span style="font-style:normal">.</span></em></span></p><p class="MsoNormal"><em><span lang="EN-GB" style="color:black;font-style:normal"> </span></em></p><p class="MsoNormal"><em><b><span lang="EN-GB" style="color:black;font-style:normal">Driving and using machines</span></b></em></p><p class="MsoNormal"><span lang="EN-GB">Dizziness and vision problems may occur during treatment with this medicine (see section 4). This should be considered in cases where full alertness is required, e.g., when driving a car or handling machines.</span></p><p class="MsoNormal"><span lang="EN-GB"> </span></p>
			</div>
		</text>
		
    	    
		
</section>
			    
    	    

			    
		               
<section>
			<title value="Abilify Maintena contains sodium"/>
				<code>
					<coding>
						<system value="http://spor.ema.europa.eu/v1/example-sections"/>
						<code value="${document[n].section[n].subsection[n].typeCode}"/>
						<display value="${document[n].section[n].subsection[n].typeDisplay}"/>
					</coding>
				</code>
		<text>
			<status value="additional"/>
			<div xmlns="http://www.w3.org/1999/xhtml">
		    <p class="MsoNormal"><b><span lang="EN-GB">Abilify Maintena contains sodium</span></b></p><p class="MsoNormal"><span lang="EN-GB">Abilify Maintena contains less than 1 mmol sodium (23 mg) per dose. This means that the medicine is essentially ‘sodium-free’.</span></p><p class="MsoNormal"><em><span lang="EN-GB" style="color:black;font-style:normal"> </span></em></p><p class="MsoNormal"><em><span lang="EN-GB" style="color:black;font-style:normal"> </span></em></p><p class="MsoNormal" style="margin-left:28.35pt;text-indent:-28.35pt"><em><b><span lang="EN-GB" style="color:black;font-style:normal">3.       How </span></b></em><b><span lang="EN-GB" style="color:black">Abilify Maintena <em><span style="font-style: normal">is given</span></em></span></b></p><p class="MsoNormal"><em><span lang="EN-GB" style="color:black;font-style:normal"> </span></em></p><p class="MsoNormal" style="text-autospace:none"><span lang="EN-GB">Abilify Maintena comes as a powder which your doctor or nurse will make into a suspension.</span></p><p class="MsoNormal" style="text-autospace:none"><span lang="EN-GB"> </span></p><p class="MsoNormal" style="text-autospace:none"><span lang="EN-GB">Your doctor will decide on the dose of Abilify Maintena that is right for you. The recommended starting dose is 400 mg unless your doctor decided to give you a lower starting or follow up dose (300 mg, 200 mg or 160 mg).</span></p><p class="MsoNormal" style="text-autospace:none"><span lang="EN-GB"> </span></p><p class="MsoNormal" style="text-autospace:none">There are two ways to start Abilify Maintena, your doctor will decide which way is right for you.</p><p class="MsoNormal" style="text-autospace:none"><em><span style="color:black; font-style:normal">•        </span></em>If you are given one injection of Abilify Maintena on your first day the <span lang="EN-GB">treatment with     aripiprazole by mouth is continued for 14 days after the first injection.</span></p><p class="MsoNormal" style="margin-left:28.35pt;text-indent:-28.35pt;text-autospace: none"><em><span style="color:black;font-style:normal">•        </span></em>If you are given two injections of Abilify Maintena on your first day, you will also take one tablet of aripiprazole by mouth at this visit.</p><p class="MsoNormal" style="text-autospace:none"><span lang="EN-GB"> </span></p><p class="MsoNormal" style="text-autospace:none"><span lang="EN-GB">After that, treatment is given with injections of Abilify Maintena unless your doctor tells you otherwise.</span></p><p class="MsoNormal" style="text-autospace:none"><span lang="EN-GB"> </span></p><p class="MsoNormal" style="text-autospace:none"><span lang="EN-GB">Your doctor will give it to you as a single injection into the gluteal or deltoid muscle (buttock or shoulder) every month. You may feel a little pain during the injection. Your doctor will alternate the injections between your right and left side. The injections will not be given intravenously.</span></p><p class="MsoNormal"><em><span lang="EN-GB" style="color:black;font-style:normal"> </span></em></p><p class="MsoNormal"><em><b><span lang="EN-GB" style="color:black;font-style:normal">If you are given more </span></b></em><b><span lang="EN-GB" style="color:black">Abilify Maintena <em><span style="font-style:normal">than you should</span></em></span></b></p><p class="MsoNormal"><em><span lang="EN-GB" style="color:black;font-style:normal">This medicine will be given to you under medical supervision; it is therefore unlikely that you will be given too much. If you see more than one doctor, be sure to tell them that you are receiving </span></em><span lang="EN-GB" style="color:black">Abilify Maintena<em><span style="font-style:normal">.</span></em></span></p><p class="MsoNormal"><em><span lang="EN-GB" style="color:black;font-style:normal"> </span></em></p><p class="MsoNormal"><em><span lang="EN-GB" style="color:black;font-style:normal">Patients who have been given too much aripiprazole have experienced the following symptoms:</span></em></p><p class="MsoNormal"><em><span lang="EN-GB" style="color:black;font-style:normal"> </span></em></p><p class="MsoNormal" style="margin-left:28.35pt;text-indent:-28.35pt"><em><span lang="EN-GB" style="color:black;font-style:normal">•        rapid heartbeat, agitation/aggressiveness, problems with speech.</span></em></p><p class="MsoNormal" style="margin-left:28.35pt;text-indent:-28.35pt"><em><span lang="EN-GB" style="color:black;font-style:normal">•        unusual movements (especially of the face or tongue) and reduced level of consciousness.</span></em></p><p class="MsoNormal"><em><span lang="EN-GB" style="color:black;font-style:normal"> </span></em></p><p class="MsoNormal"><em><span lang="EN-GB" style="color:black;font-style:normal">Other symptoms may include:</span></em></p><p class="MsoNormal"><em><span lang="EN-GB" style="color:black;font-style:normal"> </span></em></p><p class="MsoNormal" style="margin-left:28.35pt;text-indent:-28.35pt"><em><span lang="EN-GB" style="color:black;font-style:normal">•        acute confusion, seizures (epilepsy), coma, a combination of fever, faster breathing, sweating,</span></em></p><p class="MsoNormal" style="margin-left:28.35pt;text-indent:-28.35pt"><em><span lang="EN-GB" style="color:black;font-style:normal">•        muscle stiffness, and drowsiness or sleepiness, slower breathing, choking, high or low blood pressure, abnormal rhythms of the heart.</span></em></p><p class="MsoNormal"><em><span lang="EN-GB" style="color:black;font-style:normal"> </span></em></p><p class="MsoNormal"><em><span lang="EN-GB" style="color:black;font-style:normal">Contact your doctor or hospital immediately if you experience any of the above.</span></em></p><p class="MsoNormal"><em><span lang="EN-GB" style="color:black;font-style:normal"> </span></em></p><p class="MsoNormal"><em><b><span lang="EN-GB" style="color:black;font-style:normal">If you miss an injection of </span></b></em><b><span lang="EN-GB" style="color:black">Abilify Maintena</span></b></p><p class="MsoNormal"><em><span lang="EN-GB" style="color:black;font-style:normal">It is important not to miss your scheduled dose. You should be given an injection every month but not before the 26 days has passed from the last injection. If you miss an injection, you should contact your doctor to arrange your next injection as soon as you can.</span></em></p><p class="MsoNormal"><em><span lang="EN-GB" style="color:black;font-style:normal"> </span></em></p>
			</div>
		</text>
		
    	    
		
</section>
			    
    	    
		
</section>
			    
    	    
				
			    
						
		               
<section>
			<title value="5.       How to store Abilify Maintena"/>
				<code>
					<coding>
						<system value="http://spor.ema.europa.eu/v1/example-sections"/>
						<code value="${document[n].section[n].subsection[n].typeCode}"/>
						<display value="${document[n].section[n].subsection[n].typeDisplay}"/>
					</coding>
				</code>
		<text>
			<status value="additional"/>
			<div xmlns="http://www.w3.org/1999/xhtml">
		    <p class="MsoNormal" style="margin-left:28.35pt;text-indent:-28.35pt"><em><b><span lang="EN-GB" style="color:black;font-style:normal">5.       How to store </span></b></em><b><span lang="EN-GB" style="color:black">Abilify Maintena</span></b></p><p class="MsoNormal"><em><span lang="EN-GB" style="color:black;font-style:normal"> </span></em></p><p class="MsoNormal"><em><span lang="EN-GB" style="color:black;font-style:normal">Keep this medicine out of the sight and reach of children.</span></em></p><p class="MsoNormal"><em><span lang="EN-GB" style="color:black;font-style:normal"> </span></em></p><p class="MsoNormal"><em><span lang="EN-GB" style="color:black;font-style:normal">Do not use this medicine after the expiry date which is stated on the carton and the vial. The expiry date refers to the last day of that month.</span></em></p><p class="MsoNormal"><em><span lang="EN-GB" style="color:black;font-style:normal"> </span></em></p><p class="MsoNormal"><em><span lang="EN-GB" style="color:black;font-style:normal">Do not freeze.</span></em></p><p class="MsoNormal"><em><span lang="EN-GB" style="color:black;font-style:normal"> </span></em></p><p class="MsoNormal"><em><span lang="EN-GB" style="color:black;font-style:normal">The reconstituted suspension should be used immediately but may be stored below 25°C for up to 4 hours in the vial. Do not store the reconstituted suspension in the syringe.</span></em></p><p class="MsoNormal"><em><span lang="EN-GB" style="color:black;font-style:normal"> </span></em></p><p class="MsoNormal"><em><span lang="EN-GB" style="color:black;font-style:normal"> </span></em></p><p class="MsoNormal" style="margin-left:28.35pt;text-indent:-28.35pt"><em><b><span lang="EN-GB" style="color:black;font-style:normal">6.       Contents of the pack and other information</span></b></em></p><p class="MsoNormal"><em><span lang="EN-GB" style="color:black;font-style:normal"> </span></em></p><p class="MsoNormal"><em><b><span lang="EN-GB" style="color:black;font-style:normal">What </span></b></em><b><span lang="EN-GB" style="color:black">Abilify Maintena <em><span style="font-style:normal">contains</span></em></span></b></p><p class="MsoNormal" style="margin-left:28.35pt;text-indent:-28.35pt"><em><span lang="EN-GB" style="color:black;font-style:normal">-        The active substance is aripiprazole.</span></em></p><p class="MsoNormal" style="margin-left:28.35pt"><em><span lang="EN-GB" style="color:black;font-style:normal">Each vial contains 300 mg aripiprazole.</span></em></p><p class="MsoNormal" style="margin-left:28.35pt"><em><span lang="EN-GB" style="color:black;font-style:normal">After reconstitution each ml of suspension contains 200 mg aripiprazole.</span></em></p><p class="MsoNormal" style="margin-left:28.35pt"><em><span lang="EN-GB" style="color:black;font-style:normal">Each vial contains 400 mg aripiprazole.</span></em></p><p class="MsoNormal" style="margin-left:28.35pt"><em><span lang="EN-GB" style="color:black;font-style:normal">After reconstitution each ml of suspension contains 200 mg aripiprazole.</span></em></p><p class="MsoNormal" style="margin-left:28.35pt"><em><span lang="EN-GB" style="color:black;font-style:normal"> </span></em></p><p class="MsoNormal" style="margin-left:28.35pt;text-indent:-28.35pt"><em><span lang="EN-GB" style="color:black;font-style:normal">-        The other ingredients are</span></em></p><p class="MsoNormal" style="margin-left:28.35pt"><em><u><span lang="EN-GB" style="color:black;font-style:normal">Powder</span></u></em></p><p class="MsoNormal" style="margin-left:28.35pt"><em><span lang="EN-GB" style="color:black;font-style:normal">Carmellose sodium, mannitol, sodium dihydrogen phosphate monohydrate, sodium hydroxide</span></em></p><p class="MsoNormal" style="margin-left:28.35pt"><em><u><span lang="EN-GB" style="color:black;font-style:normal">Solvent</span></u></em></p><p class="MsoNormal" style="margin-left:28.35pt"><em><span lang="EN-GB" style="color:black;font-style:normal">Water for injections</span></em></p><p class="MsoNormal"><em><span lang="EN-GB" style="color:black;font-style:normal"> </span></em></p><p class="MsoNormal"><em><b><span lang="EN-GB" style="color:black;font-style:normal">What </span></b></em><b><span lang="EN-GB" style="color:black">Abilify Maintena <em><span style="font-style:normal">looks like and contents of the pack</span></em></span></b></p><p class="MsoNormal"><span lang="EN-GB" style="color:black">Abilify Maintena <em><span style="font-style:normal">is a powder and solvent for prolonged-release suspension for injection.</span></em></span></p><p class="MsoNormal"><em><span lang="EN-GB" style="color:black;font-style:normal"> </span></em></p><p class="MsoNormal"><span lang="EN-GB" style="color:black">Abilify Maintena <em><span style="font-style:normal">comes as a white to off-white powder in a clear glass vial. Your doctor or nurse will make it into a suspension that will be given as an injection using the vial of solvent for </span></em>Abilify Maintena <em><span style="font-style:normal">that comes as a clear solution in a clear glass vial.</span></em></span></p><p class="MsoNormal"><em><span lang="EN-GB" style="color:black;font-style:normal"> </span></em></p><p class="MsoNormal"><em><span lang="EN-GB" style="color:black">Single pack</span></em></p><p class="MsoNormal"><em><span lang="EN-GB" style="color:black;font-style:normal">Each single pack containing one vial of powder, 2 ml vial of solvent, one 3 ml luer lock syringe with pre-attached 38 mm (1.5 inch) 21 gauge, hypodermic safety needle with needle protection device, one 3 ml disposable syringe with luer lock tip, one vial adapter and three hypodermic safety needles: one 25 mm (1 inch) 23 gauge, one 38 mm (1.5 inch) 22 gauge and one 51 mm (2 inch) 21 gauge.</span></em></p><p class="MsoNormal"><em><span lang="EN-GB" style="color:black;font-style:normal"> </span></em></p><p class="MsoNormal"><em><span lang="EN-GB" style="color:black">Multipack</span></em></p><p class="MsoNormal"><em><span lang="EN-GB" style="color:black;font-style:normal">Bundle pack of 3 single packs.</span></em></p><p class="MsoNormal"><em><span lang="EN-GB" style="color:black;font-style:normal"> </span></em></p><p class="MsoNormal"><em><span lang="EN-GB" style="color:black;font-style:normal">Not all pack sizes may be marketed.</span></em></p><p class="MsoNormal"><em><span lang="EN-GB" style="color:black;font-style:normal"> </span></em></p><p class="MsoNormal" style="page-break-after:avoid"><em><b><span lang="EN-GB" style="color:black;font-style:normal">Marketing Authorisation Holder</span></b></em></p><p class="MsoNormal"><span lang="EN-GB">Otsuka Pharmaceutical Netherlands B.V.</span></p><p class="MsoNormal"><span lang="EN-GB">Herikerbergweg 292</span></p><p class="MsoNormal"><span lang="EN-GB">1101 CT, Amsterdam</span></p><p class="MsoNormal"><span lang="EN-GB">Netherlands</span></p><p class="MsoNormal"><em><span lang="EN-GB" style="color:black;font-style:normal"> </span></em></p><p class="MsoNormal"><em><b><span lang="EN-GB" style="color:black;font-style:normal">Manufacturer</span></b></em></p><p class="MsoNormal"><em><span lang="EN-GB" style="color:black;font-style:normal">H. Lundbeck A/S</span></em></p><p class="MsoNormal"><em><span lang="EN-GB" style="color:black;font-style:normal">Ottiliavej 9, 2500 Valby</span></em></p><p class="MsoNormal"><em><span lang="EN-GB" style="color:black;font-style:normal">Denmark</span></em></p><p class="MsoNormal"><em><span lang="EN-GB" style="color:black;font-style:normal"> </span></em></p>
			</div>
		</text>
		
    	    
		
</section>
			    
    	    
		
	
		
		
    	    
				
			    
						
		               
<section>
			<title value="2.       What you need to know before you are given Abilify Maintena"/>
				<code>
					<coding>
						<system value="http://spor.ema.europa.eu/v1/example-sections"/>
						<code value="${document[n].section[n].subsection[n].typeCode}"/>
						<display value="${document[n].section[n].subsection[n].typeDisplay}"/>
					</coding>
				</code>
		<text>
			<status value="additional"/>
			<div xmlns="http://www.w3.org/1999/xhtml">
		    <p class="MsoNormal" style="margin-left:28.35pt;text-indent:-28.35pt"><em><b><span lang="EN-GB" style="color:black;font-style:normal">2.       What you need to know before you are given </span></b></em><b><span lang="EN-GB" style="color:black">Abilify Maintena</span></b></p><p class="MsoNormal"><em><span lang="EN-GB" style="color:black;font-style:normal"> </span></em></p>
			</div>
		</text>
		
    	    

			    
		               
<section>
			<title value="Do not use Abilify Maintena"/>
				<code>
					<coding>
						<system value="http://spor.ema.europa.eu/v1/example-sections"/>
						<code value="${document[n].section[n].subsection[n].typeCode}"/>
						<display value="${document[n].section[n].subsection[n].typeDisplay}"/>
					</coding>
				</code>
		<text>
			<status value="additional"/>
			<div xmlns="http://www.w3.org/1999/xhtml">
		    <p class="MsoNormal"><em><b><span lang="EN-GB" style="color:black;font-style:normal">Do not use </span></b></em><b><span lang="EN-GB" style="color:black">Abilify Maintena</span></b></p><p class="MsoNormal" style="margin-left:28.35pt;text-indent:-28.35pt"><em><span lang="EN-GB" style="color:black;font-style:normal">•</span></em><em><span lang="EN-GB" style="color:black;font-style:normal">        if you are allergic to aripiprazole or any of the other ingredients of this medicine (listed in section 6).</span></em></p><p class="MsoNormal"><em><span lang="EN-GB" style="color:black;font-style:normal"> </span></em></p><p class="MsoNormal"><em><b><span lang="EN-GB" style="color:black;font-style:normal">Warnings and precautions</span></b></em></p><p class="MsoNormal"><em><span lang="EN-GB" style="color:black;font-style:normal">Talk to your doctor or nurse before you are given </span></em><span lang="EN-GB" style="color:black">Abilify Maintena<em><span style="font-style:normal">.</span></em></span></p><p class="MsoNormal"><em><span lang="EN-GB" style="color:black;font-style:normal"> </span></em></p><p class="MsoNormal"><em><span lang="EN-GB" style="color:black;font-style:normal">Suicidal thoughts and behaviours have been reported during aripiprazole treatment. Tell your doctor immediately if you are having any thoughts or feelings about hurting yourself.</span></em></p><p class="MsoNormal"><em><span lang="EN-GB" style="color:black;font-style:normal"> </span></em></p><p class="MsoNormal"><em><span lang="EN-GB" style="color:black;font-style:normal">Before treatment with </span></em><span lang="EN-GB" style="color:black">Abilify Maintena<em><span style="font-style:normal">, tell your doctor if you suffer from</span></em></span></p><p class="MsoNormal"><em><span lang="EN-GB" style="color:black;font-style:normal"> </span></em></p><p class="MsoNormal" style="margin-left:28.35pt;text-indent:-28.35pt"><em><span lang="EN-GB" style="color:black;font-style:normal">•        an acutely agitated state or a severely psychotic state</span></em></p><p class="MsoNormal" style="margin-left:28.35pt;text-indent:-28.35pt"><em><span lang="EN-GB" style="color:black;font-style:normal">•        heart problems or have a history of stroke, especially if you know that you have other risks factors for stroke</span></em></p><p class="MsoNormal" style="margin-left:28.35pt;text-indent:-28.35pt"><em><span lang="EN-GB" style="color:black;font-style:normal">•        high blood sugar (characterised by symptoms such as excessive thirst, passing of large amounts of urine, increase in appetite and feeling weak) or family history of diabetes</span></em></p><p class="MsoNormal" style="margin-left:28.35pt;text-indent:-28.35pt"><em><span lang="EN-GB" style="color:black;font-style:normal">•        fits (seizures) since your doctor may want to monitor you more closely</span></em></p><p class="MsoNormal" style="margin-left:28.35pt;text-indent:-28.35pt"><em><span lang="EN-GB" style="color:black;font-style:normal">•        involuntary, irregular muscle movements, especially in the face</span></em></p><p class="MsoNormal" style="margin-left:28.35pt;text-indent:-28.35pt"><em><span lang="EN-GB" style="color:black;font-style:normal">•        </span></em><span lang="EN-GB" style="color:black">experience a combination of fever, sweating, faster breathing, muscle stiffness and drowsiness or sleepiness (may be signs of neuroleptic malignant syndrome)</span></p><p class="MsoNormal" style="margin-left:28.35pt;text-indent:-28.35pt"><em><span lang="EN-GB" style="color:black;font-style:normal">•        </span></em><span lang="EN-GB" style="color:black">dementia (loss of memory and other mental abilities) especially if you are elderly</span></p><p class="MsoNormal" style="margin-left:28.35pt;text-indent:-28.35pt"><em><span lang="EN-GB" style="color:black;font-style:normal">•        cardiovascular diseases (diseases of the heart and circulation), family history of cardiovascular disease, stroke or "mini" stroke, abnormal blood pressure</span></em></p><p class="MsoNormal" style="margin-left:28.35pt;text-indent:-28.35pt"><em><span lang="EN-GB" style="color:black;font-style:normal">•        irregular heart beat or if someone else in your family has a history of irregular heart beat (including so called QT prolongation seen with ECG monitoring).</span></em></p><p class="MsoNormal" style="margin-left:28.35pt;text-indent:-28.35pt"><em><span lang="EN-GB" style="color:black;font-style:normal">•        blood clots, or family history of blood clots, as antipsychotics have been associated with formation of blood clots</span></em></p><p class="MsoNormal" style="margin-left:28.35pt;text-indent:-28.35pt"><em><span lang="EN-GB" style="color:black;font-style:normal">•        </span></em><span lang="EN-GB" style="color:black">have any difficulty in swallowing</span></p><p class="MsoNormal" style="margin-left:28.35pt;text-indent:-28.35pt"><em><span lang="EN-GB" style="color:black;font-style:normal">•        past experience with excessive gambling</span></em></p><p class="MsoNormal" style="margin-left:28.35pt;text-indent:-28.35pt"><em><span lang="EN-GB" style="color:black;font-style:normal">•        severe liver problems.</span></em></p><p class="MsoNormal"><em><span lang="EN-GB" style="color:black;font-style:normal"> </span></em></p><p class="MsoNormal"><em><span lang="EN-GB" style="color:black;font-style:normal">If you notice you are gaining weight, develop unusual movements, experience sleepiness that interferes with normal daily activities, any difficulty in swallowing or have allergic symptoms, please talk to your doctor immediately.</span></em></p><p class="MsoNormal"><span lang="EN-GB"> </span></p><p class="MsoNormal"><span lang="EN-GB">Tell your doctor if you or your family/carer notices that you are developing urges or cravings to behave in ways that are unusual for you and you cannot resist the impulse, drive or temptation to carry out certain activities that could harm yourself or others. These are called impulse control disorders and can include behaviours such as addictive gambling, excessive eating or spending, an abnormally high sex drive or preoccupation with an increase in sexual thoughts or feelings.</span></p><p class="MsoNormal"><u><span lang="EN-GB">Your doctor may need to adjust or stop your dose.</span></u></p><p class="MsoNormal"><span lang="EN-GB"> </span></p><p class="MsoNormal" style="background:white"><span style="color:#212121">Aripiprazole</span><span style="color:#212121"> may cause sleepiness, fall in blood pressure when standing up, dizziness and changes in your ability to move and balance, which may lead to falls. Caution should be taken, particularly if you are an elderly patient or have some debility.</span></p><p class="MsoNormal" style="background:white"><span style="color:#212121"> </span></p>
			</div>
		</text>
		
    	    
		
</section>
			    
    	    

			    
		               
<section>
			<title value="Children and adolescents"/>
				<code>
					<coding>
						<system value="http://spor.ema.europa.eu/v1/example-sections"/>
						<code value="${document[n].section[n].subsection[n].typeCode}"/>
						<display value="${document[n].section[n].subsection[n].typeDisplay}"/>
					</coding>
				</code>
		<text>
			<status value="additional"/>
			<div xmlns="http://www.w3.org/1999/xhtml">
		    <p class="MsoNormal"><b><span lang="EN-GB" style="color:black">Children and adolescents</span></b></p><p class="MsoNormal"><span lang="EN-GB" style="color:black">Do not use this medicine in children and adolescents under 18 years of age. It is not known if it is safe and effective in these patients.</span></p><p class="MsoNormal"><em><span lang="EN-GB" style="color:black;font-style:normal"> </span></em></p>
			</div>
		</text>
		
    	    
		
</section>
			    
    	    

			    
		               
<section>
			<title value="Other medicines and Abilify Maintena"/>
				<code>
					<coding>
						<system value="http://spor.ema.europa.eu/v1/example-sections"/>
						<code value="${document[n].section[n].subsection[n].typeCode}"/>
						<display value="${document[n].section[n].subsection[n].typeDisplay}"/>
					</coding>
				</code>
		<text>
			<status value="additional"/>
			<div xmlns="http://www.w3.org/1999/xhtml">
		    <p class="MsoNormal"><em><b><span lang="EN-GB" style="color:black;font-style:normal">Other medicines and </span></b></em><b><span lang="EN-GB" style="color:black">Abilify Maintena</span></b></p><p class="MsoNormal"><em><span lang="EN-GB" style="color:black;font-style:normal">Tell your doctor if you are taking, have recently taken or might take any other medicines.</span></em></p><p class="MsoNormal"><em><span lang="EN-GB" style="color:black;font-style:normal"> </span></em></p><p class="MsoNormal"><em><span lang="EN-GB" style="color:black;font-style:normal">Blood pressure-lowering medicines:</span></em><span lang="EN-GB" style="color:black"> Abilify Maintena <em><span style="font-style:normal">may increase the effect of medicines used to lower the blood pressure. Be sure to tell your doctor if you take a medicine to keep your blood pressure under control.</span></em></span></p><p class="MsoNormal"><em><span lang="EN-GB" style="color:black;font-style:normal"> </span></em></p><p class="MsoNormal"><em><span lang="EN-GB" style="color:black;font-style:normal">Receiving </span></em><span lang="EN-GB" style="color:black">Abilify Maintena <em><span style="font-style:normal">with some medicines may mean the doctor will need to change your dose of </span></em>Abilify Maintena <em><span style="font-style: normal">or the other medicines. It is especially important to mention the following to your doctor:</span></em></span></p><p class="MsoNormal"><em><span lang="EN-GB" style="color:black;font-style:normal"> </span></em></p><p class="MsoNormal" style="margin-left:28.35pt;text-indent:-28.35pt"><em><span lang="EN-GB" style="color:black;font-style:normal">•        medicines to correct heart rhythm (such as quinidine, amiodarone, flecainide)</span></em></p><p class="MsoNormal" style="margin-left:28.35pt;text-indent:-28.35pt"><em><span lang="EN-GB" style="color:black;font-style:normal">•        antidepressants or herbal remedy used to treat depression and anxiety</span></em><span class="berschrift4Zchn"><i><span lang="EN-GB" style='font-family:"Times New Roman",serif; color:black'> </span></i></span><span class="berschrift4Zchn"><span lang="EN-GB" style='font-family:"Times New Roman",serif;color:black;font-weight:normal'>(</span></span><em><span lang="EN-GB" style="color:black;font-style:normal">such as fluoxetine, paroxetine, St. John's Wort)</span></em></p><p class="MsoNormal" style="margin-left:28.35pt;text-indent:-28.35pt"><em><span lang="EN-GB" style="color:black;font-style:normal">•        antifungal medicines (such as ketoconazole, itraconazole)</span></em></p><p class="MsoNormal" style="margin-left:28.35pt;text-indent:-28.35pt"><em><span lang="EN-GB" style="color:black;font-style:normal">•        certain medicines to treat HIV infection (such as efavirenz, nevirapine, and protease inhibitors e.g. indinavir, ritonavir)</span></em></p><p class="MsoNormal" style="margin-left:28.35pt;text-indent:-28.35pt"><em><span lang="EN-GB" style="color:black;font-style:normal">•        anticonvulsants used to treat epilepsy (such as </span></em><span class="BMSHeading3Char"><span lang="EN-GB" style='font-family:"Times New Roman",serif;font-weight:normal'>carbamazepine, phenytoin,</span></span><span class="BMSHeading3Char"><i><span lang="EN-GB" style='font-family:"Times New Roman",serif'> </span></i></span><em><span lang="EN-GB" style="color:black;font-style:normal">phenobarbital)</span></em></p><p class="MsoNormal" style="margin-left:28.35pt;text-indent:-28.35pt"><em><span lang="EN-GB" style="color:black;font-style:normal">•        certain antibiotics used to treat tuberculosis (rifabutin, rifampicin)</span></em></p><p class="EMEABodyText" style="margin-left:28.35pt;text-indent:-28.35pt"><em><span lang="EN-GB" style="font-size:11.0pt;color:black;font-style:normal">•        medicines that are known to prolong QT prolongation.</span></em></p><p class="EMEABodyText"><span lang="EN-GB" style="font-size:11.0pt"> </span></p><p class="EMEABodyText"><span lang="EN-GB" style="font-size:11.0pt">These medicines may increase the risk of side effects or reduce the effect of <span style="color:black">Abilify Maintena</span>; if you get any unusual symptom taking any of these medicines together with <span style="color:black">Abilify Maintena</span>, you should see your doctor.</span></p><p class="EMEABodyText"><span lang="EN-GB" style="font-size:11.0pt"> </span></p><p class="EMEABodyText"><span lang="EN-GB" style="font-size:11.0pt;color:black">Medicines that increase the level of serotonin </span><span class="BMSHeading3Char"><span lang="EN-GB" style='font-size:11.0pt;font-family:"Times New Roman",serif; font-weight:normal'>are typically used in conditions including depression, generalised anxiety disorder, obsessive-compulsive disorder (OCD) and social phobia as well as migraine and pain</span></span><span lang="EN-GB" style="font-size:11.0pt; color:black">:</span></p><p class="EMEABodyText"><span lang="EN-GB" style="font-size:11.0pt"> </span></p><p class="EMEABodyText" style="margin-left:28.35pt;text-indent:-28.35pt"><em><span lang="EN-GB" style="font-size:11.0pt;color:black;font-style:normal">•        </span></em><span lang="EN-GB" style="font-size:11.0pt">triptans, tramadol and tryptophan used for conditions including depression, generalised anxiety disorder, obsessive compulsive disorder (OCD) and social phobia as well as migraine and pain</span></p><p class="EMEABodyText" style="margin-left:28.35pt;text-indent:-28.35pt"><em><span lang="EN-GB" style="font-size:11.0pt;color:black;font-style:normal">•        </span></em><span lang="EN-GB" style="font-size:11.0pt;color:black">SSRI s (such as paroxetine and fluoxetine) used for depression, OCD, panic and anxiety</span></p><p class="EMEABodyText" style="margin-left:28.35pt;text-indent:-28.35pt"><em><span lang="EN-GB" style="font-size:11.0pt;color:black;font-style:normal">•        </span></em><span lang="EN-GB" style="font-size:11.0pt;color:black">other anti-depressants (such as venlafaxine and tryptophan) used in major depression</span></p><p class="EMEABodyText" style="margin-left:28.35pt;text-indent:-28.35pt"><em><span lang="EN-GB" style="font-size:11.0pt;color:black;font-style:normal">•        </span></em><span lang="EN-GB" style="font-size:11.0pt;color:black">tricyclic’s (such as clomipramine and amitriptyline) used for depressive illness</span></p><p class="EMEABodyText" style="margin-left:28.35pt;text-indent:-28.35pt"><em><span lang="EN-GB" style="font-size:11.0pt;color:black;font-style:normal">•        </span></em><span lang="EN-GB" style="font-size:11.0pt;color:black">St John’s Wort (<i>Hypericum perforatum</i>) used as a herbal remedy for mild depression</span></p><p class="EMEABodyText" style="margin-left:28.35pt;text-indent:-28.35pt"><em><span lang="EN-GB" style="font-size:11.0pt;color:black;font-style:normal">•        </span></em><span lang="EN-GB" style="font-size:11.0pt;color:black">painkillers (such as tramadol and pethidine) used for pain relief</span></p><p class="EMEABodyText" style="margin-left:28.35pt;text-indent:-28.35pt"><em><span lang="EN-GB" style="font-size:11.0pt;color:black;font-style:normal">•        </span></em><span lang="EN-GB" style="font-size:11.0pt;color:black">triptans (such as sumatriptan and zolmitripitan) used for treating migraine.</span></p><p class="MsoNormal"><em><span lang="EN-GB" style="color:black;font-style:normal"> </span></em></p><p class="EMEABodyText"><span lang="EN-GB" style="font-size:11.0pt">These medicines may increase the risk of side effects; if you get any unusual symptom taking any of these medicines together with <span style="color:black">Abilify Maintena</span>, you should see your doctor.</span></p><p class="EMEABodyText"><span lang="EN-GB" style="font-size:11.0pt"> </span></p><p class="MsoNormal"><b><span lang="EN-GB" style="color:black">Abilify Maintena <em><span style="font-style:normal">with alcohol</span></em></span></b></p><p class="MsoNormal"><em><span lang="EN-GB" style="color:black;font-style:normal">Alcohol should be avoided.</span></em></p><p class="MsoNormal"><em><span lang="EN-GB" style="color:black;font-style:normal"> </span></em></p><p class="MsoNormal"><em><b><span lang="EN-GB" style="color:black;font-style:normal">Pregnancy, breast-feeding and fertility</span></b></em></p><p class="MsoNormal"><em><span lang="EN-GB" style="color:black;font-style:normal">If you are pregnant or breast-feeding, think you may be pregnant or are planning to have a baby, ask your doctor for advice before receiving this medicine.</span></em></p><p class="MsoNormal"><em><span lang="EN-GB" style="color:black;font-style:normal"> </span></em></p><p class="MsoNormal"><em><b><span lang="EN-GB" style="color:black;font-style:normal">You should not be given </span></b></em><b><span lang="EN-GB" style="color:black">Abilify Maintena <em><span style="font-style:normal">if you are pregnant unless you have</span></em></span></b><em><span lang="EN-GB" style="color:black;font-style: normal"> discussed this with your doctor. </span></em><span lang="EN-GB" style="color:black">Be sure to tell your doctor immediately if you are pregnant, think you may be pregnant, or if you are planning to become pregnant.</span></p><p class="MsoNormal"><em><span lang="EN-GB" style="color:black;font-style:normal"> </span></em></p><p class="MsoNormal"><em><span lang="EN-GB" style="color:black;font-style:normal">The following symptoms may occur in new-born babies, of mothers that have received </span></em><span lang="EN-GB" style="color:black">Abilify Maintena <em><span style="font-style: normal">in the last trimester (last three months of their pregnancy):</span></em></span></p><p class="MsoNormal"><em><span lang="EN-GB" style="color:black;font-style:normal">shaking, muscle stiffness and/or weakness, sleepiness, agitation, breathing problems, and difficulty in feeding.</span></em></p><p class="MsoNormal"><em><span lang="EN-GB" style="color:black;font-style:normal"> </span></em></p><p class="MsoNormal"><em><span lang="EN-GB" style="color:black;font-style:normal">If your baby develops any of these symptoms you need to contact your doctor.</span></em></p><p class="MsoNormal"><em><span lang="EN-GB" style="color:black;font-style:normal"> </span></em></p><p class="MsoNormal"><em><span lang="EN-GB" style="color:black;font-style:normal">If you are receiving </span></em><span lang="EN-GB" style="color:black">Abilify Maintena<em><span style="font-style:normal">, your doctor will discuss with you whether you should breast-feed considering the benefit to you of your therapy and the benefit to your baby of breast-feeding. You should not do both. Talk to your doctor about the best way to feed your baby if you are receiving </span></em>Abilify Maintena<em><span style="font-style:normal">.</span></em></span></p><p class="MsoNormal"><em><span lang="EN-GB" style="color:black;font-style:normal"> </span></em></p><p class="MsoNormal"><em><b><span lang="EN-GB" style="color:black;font-style:normal">Driving and using machines</span></b></em></p><p class="MsoNormal"><span lang="EN-GB">Dizziness and vision problems may occur during treatment with this medicine (see section 4). This should be considered in cases where full alertness is required, e.g., when driving a car or handling machines.</span></p><p class="MsoNormal"><em><span lang="EN-GB" style="color:black;font-style:normal"> </span></em></p>
			</div>
		</text>
		
    	    
		
</section>
			    
    	    

			    
		               
<section>
			<title value="Abilify Maintena contains sodium"/>
				<code>
					<coding>
						<system value="http://spor.ema.europa.eu/v1/example-sections"/>
						<code value="${document[n].section[n].subsection[n].typeCode}"/>
						<display value="${document[n].section[n].subsection[n].typeDisplay}"/>
					</coding>
				</code>
		<text>
			<status value="additional"/>
			<div xmlns="http://www.w3.org/1999/xhtml">
		    <p class="MsoNormal"><b><span lang="EN-GB">Abilify Maintena contains sodium</span></b></p><p class="MsoNormal"><span lang="EN-GB">Abilify Maintena contains less than 1 mmol sodium (23 mg) per dose. This means that the medicine is essentially ‘sodium-free’.</span></p><p class="MsoNormal"><span lang="EN-GB"> </span></p><p class="MsoNormal"><em><span lang="EN-GB" style="color:black;font-style:normal"> </span></em></p><p class="MsoNormal" style="margin-left:28.35pt;text-indent:-28.35pt"><em><b><span lang="EN-GB" style="color:black;font-style:normal">3.       How </span></b></em><b><span lang="EN-GB" style="color:black">Abilify Maintena <em><span style="font-style: normal">is given</span></em></span></b></p><p class="MsoNormal"><em><span lang="EN-GB" style="color:black;font-style:normal"> </span></em></p><p class="MsoNormal" style="text-autospace:none"><span lang="EN-GB">Abilify Maintena comes as a pre‑filled syringe.</span></p><p class="MsoNormal" style="text-autospace:none"><span lang="EN-GB"> </span></p><p class="MsoNormal" style="text-autospace:none"><span lang="EN-GB">Your doctor will decide on the dose of Abilify Maintena that is right for you. The recommended starting dose is 400 mg unless your doctor decided to give you a lower starting or follow up dose (300 mg, 200 mg or 160 mg).</span></p><p class="MsoNormal" style="text-autospace:none"><span lang="EN-GB"> </span></p><p class="MsoNormal" style="text-autospace:none">There are two ways to start Abilify Maintena, your doctor will decide which way is right for you.</p><p class="MsoNormal" style="margin-left:28.35pt;text-indent:-28.35pt;text-autospace: none"><em><span style="color:black;font-style:normal">•        </span></em><em><span style="color:black;font-style:normal">If you are given one injection of Abilify Maintena on your first day the </span></em><em><span lang="EN-GB" style="color:black;font-style:normal">treatment with aripiprazole by </span></em><em><span lang="EN-GB" style="color:black;font-style:normal">mouth</span></em><em><span lang="EN-GB" style="color:black;font-style:normal"> is continued for 14 days after the first injection.</span></em></p><p class="MsoNormal" style="margin-left:28.35pt;text-indent:-28.35pt;text-autospace: none"><em><span lang="EN-GB" style="color:black;font-style:normal">•        </span></em><span lang="EN-GB">If you are given two injections of Abilify Maintena on your first day, you will also take one tablet of aripiprazole by mouth at this visit.</span></p><p class="MsoNormal" style="text-autospace:none"><span lang="EN-GB"> </span></p><p class="MsoNormal" style="text-autospace:none"><span lang="EN-GB">After that, treatment is given with injections of Abilify Maintena unless your doctor tells you otherwise.</span></p><p class="MsoNormal"><em><span lang="EN-GB" style="color:black;font-style:normal"> </span></em></p><p class="MsoNormal" style="text-autospace:none"><span lang="EN-GB">Your doctor will give it to you as a single injection into the gluteal or deltoid muscle (buttock or shoulder) every month. You may feel a little pain during the injection. Your doctor will alternate the injections between your right and left side. The injections will not be given intravenously.</span></p><p class="MsoNormal"><em><span lang="EN-GB" style="color:black;font-style:normal"> </span></em></p><p class="MsoNormal"><em><b><span lang="EN-GB" style="color:black;font-style:normal">If you are given more </span></b></em><b><span lang="EN-GB" style="color:black">Abilify Maintena <em><span style="font-style:normal">than you should</span></em></span></b></p><p class="MsoNormal"><em><span lang="EN-GB" style="color:black;font-style:normal">This medicine will be given to you under medical supervision; it is therefore unlikely that you will be given too much. If you see more than one doctor, be sure to tell them that you are receiving </span></em><span lang="EN-GB" style="color:black">Abilify Maintena<em><span style="font-style:normal">.</span></em></span></p><p class="MsoNormal"><em><span lang="EN-GB" style="color:black;font-style:normal"> </span></em></p><p class="MsoNormal"><em><span lang="EN-GB" style="color:black;font-style:normal">Patients who have been given too much aripiprazole have experienced the following symptoms:</span></em></p><p class="MsoNormal"><em><span lang="EN-GB" style="color:black;font-style:normal"> </span></em></p><p class="MsoNormal" style="margin-left:28.35pt;text-indent:-28.35pt"><em><span lang="EN-GB" style="color:black;font-style:normal">•        rapid heartbeat, agitation/aggressiveness, problems with speech.</span></em></p><p class="MsoNormal" style="margin-left:28.35pt;text-indent:-28.35pt"><em><span lang="EN-GB" style="color:black;font-style:normal">•        unusual movements (especially of the face or tongue) and reduced level of consciousness.</span></em></p><p class="MsoNormal"><em><span lang="EN-GB" style="color:black;font-style:normal"> </span></em></p><p class="MsoNormal"><em><span lang="EN-GB" style="color:black;font-style:normal">Other symptoms may include:</span></em></p><p class="MsoNormal"><em><span lang="EN-GB" style="color:black;font-style:normal"> </span></em></p><p class="MsoNormal" style="margin-left:28.35pt;text-indent:-28.35pt"><em><span lang="EN-GB" style="color:black;font-style:normal">•        acute confusion, seizures (epilepsy), coma, a combination of fever, faster breathing, sweating,</span></em></p><p class="MsoNormal" style="margin-left:28.35pt;text-indent:-28.35pt"><em><span lang="EN-GB" style="color:black;font-style:normal">•        muscle stiffness, and drowsiness or sleepiness, slower breathing, choking, high or low blood pressure, abnormal rhythms of the heart.</span></em></p><p class="MsoNormal"><em><span lang="EN-GB" style="color:black;font-style:normal"> </span></em></p><p class="MsoNormal"><em><span lang="EN-GB" style="color:black;font-style:normal">Contact your doctor or hospital immediately if you experience any of the above.</span></em></p><p class="MsoNormal"><em><span lang="EN-GB" style="color:black;font-style:normal"> </span></em></p><p class="MsoNormal"><em><b><span lang="EN-GB" style="color:black;font-style:normal">If you miss an injection of </span></b></em><b><span lang="EN-GB" style="color:black">Abilify Maintena</span></b></p><p class="MsoNormal"><em><span lang="EN-GB" style="color:black;font-style:normal">It is important not to miss your scheduled dose. You should be given an injection every month but not before the 26 days has passed from the last injection. If you miss an injection, you should contact your doctor to arrange your next injection as soon as you can.</span></em></p><p class="MsoNormal"><em><span lang="EN-GB" style="color:black;font-style:normal"> </span></em></p>
			</div>
		</text>
		
    	    
		
</section>
			    
    	    
		
</section>
			    
    	    
				
			    
						
		               
<section>
			<title value="5.       How to store Abilify Maintena"/>
				<code>
					<coding>
						<system value="http://spor.ema.europa.eu/v1/example-sections"/>
						<code value="${document[n].section[n].subsection[n].typeCode}"/>
						<display value="${document[n].section[n].subsection[n].typeDisplay}"/>
					</coding>
				</code>
		<text>
			<status value="additional"/>
			<div xmlns="http://www.w3.org/1999/xhtml">
		    <p class="MsoNormal" style="margin-left:28.35pt;text-indent:-28.35pt"><em><b><span lang="EN-GB" style="color:black;font-style:normal">5.       How to store </span></b></em><b><span lang="EN-GB" style="color:black">Abilify Maintena</span></b></p><p class="MsoNormal"><em><span lang="EN-GB" style="color:black;font-style:normal"> </span></em></p><p class="MsoNormal"><em><span lang="EN-GB" style="color:black;font-style:normal">Keep this medicine out of the sight and reach of children.</span></em></p><p class="MsoNormal"><em><span lang="EN-GB" style="color:black;font-style:normal"> </span></em></p><p class="MsoNormal"><em><span lang="EN-GB" style="color:black;font-style:normal">Do not use this medicine after the expiry date which is stated on the carton and the pre-filled syringe. The expiry date refers to the last day of that month.</span></em></p><p class="MsoNormal"><em><span lang="EN-GB" style="color:black;font-style:normal"> </span></em></p><p class="MsoNormal"><em><span lang="EN-GB" style="color:black;font-style:normal">Do not freeze.</span></em></p><p class="MsoNormal"><em><span lang="EN-GB" style="color:black;font-style:normal"> </span></em></p><p class="MsoNormal"><span lang="EN-GB">Keep the pre‑filled syringe in the outer carton in order to protect from light.</span></p><p class="MsoNormal"><em><span lang="EN-GB" style="color:black;font-style:normal"> </span></em></p><p class="MsoNormal"><span lang="EN-GB">If the injection is not performed immediately after reconstitution, the syringe can be kept <em><span style="font-style:normal">below 25 °C </span></em>for up to 2 hours.</span></p><p class="MsoNormal"><em><span lang="EN-GB" style="color:black;font-style:normal"> </span></em></p><p class="MsoNormal"><em><span lang="EN-GB" style="color:black;font-style:normal"> </span></em></p><p class="MsoNormal" style="margin-left:28.35pt;text-indent:-28.35pt"><em><b><span lang="EN-GB" style="color:black;font-style:normal">6.       Contents of the pack and other information</span></b></em></p><p class="MsoNormal"><em><span lang="EN-GB" style="color:black;font-style:normal"> </span></em></p><p class="MsoNormal"><em><b><span lang="EN-GB" style="color:black;font-style:normal">What </span></b></em><b><span lang="EN-GB" style="color:black">Abilify Maintena <em><span style="font-style:normal">contains</span></em></span></b></p><p class="MsoNormal" style="margin-left:28.35pt;text-indent:-28.35pt"><em><span lang="EN-GB" style="color:black;font-style:normal">-        The active substance is aripiprazole.</span></em></p><p class="MsoNormal" style="margin-left:28.35pt"><em><span lang="EN-GB" style="color:black;font-style:normal">Each pre‑filled syringe contains 300 mg aripiprazole.</span></em></p><p class="MsoNormal" style="margin-left:28.35pt"><em><span lang="EN-GB" style="color:black;font-style:normal">After reconstitution each ml of suspension contains 200 mg aripiprazole.</span></em></p><p class="MsoNormal" style="margin-left:28.35pt"><em><span lang="EN-GB" style="color:black;font-style:normal">Each pre‑filled syringe contains 400 mg aripiprazole.</span></em></p><p class="MsoNormal" style="margin-left:28.35pt"><em><span lang="EN-GB" style="color:black;font-style:normal">After reconstitution each ml of suspension contains 200 mg aripiprazole.</span></em></p><p class="MsoNormal" style="margin-left:28.35pt"><em><span lang="EN-GB" style="color:black;font-style:normal"> </span></em></p><p class="MsoNormal" style="margin-left:28.35pt;text-indent:-28.35pt"><em><span lang="EN-GB" style="color:black;font-style:normal">-        The other ingredients are</span></em></p><p class="MsoNormal" style="margin-left:28.35pt"><em><u><span lang="EN-GB" style="color:black;font-style:normal">Powder</span></u></em></p><p class="MsoNormal" style="margin-left:28.35pt"><em><span lang="EN-GB" style="color:black;font-style:normal">Carmellose sodium, mannitol, sodium dihydrogen phosphate monohydrate, sodium hydroxide</span></em></p><p class="MsoNormal" style="margin-left:28.35pt"><em><u><span lang="EN-GB" style="color:black;font-style:normal">Solvent</span></u></em></p><p class="MsoNormal" style="margin-left:28.35pt"><em><span lang="EN-GB" style="color:black;font-style:normal">Water for injections</span></em></p><p class="MsoNormal"><em><span lang="EN-GB" style="color:black;font-style:normal"> </span></em></p><p class="MsoNormal"><em><b><span lang="EN-GB" style="color:black;font-style:normal">What </span></b></em><b><span lang="EN-GB" style="color:black">Abilify Maintena <em><span style="font-style:normal">looks like and contents of the pack</span></em></span></b></p><p class="MsoNormal"><span lang="EN-GB">Abilify Maintena <em><span style="font-style:normal">comes in a pre‑filled syringe containing a white to off-white powder in the front chamber and a clear solvent in the rear chamber. Your doctor will make it into a suspension that will be given as an injection.</span></em></span></p><p class="MsoNormal"><em><span lang="EN-GB" style="color:black;font-style:normal"> </span></em></p><p class="MsoNormal"><em><span lang="EN-GB" style="color:black">Single pack</span></em></p><p class="MsoNormal"><em><span lang="EN-GB" style="color:black;font-style:normal">Each single pack containing one pre‑filled syringe and three hypodermic safety needles: one 25 mm (1 inch) 23 gauge, one 38 mm (1.5 inch) 22 gauge and one 51 mm (2 inch) 21 gauge.</span></em></p><p class="MsoNormal"><em><span lang="EN-GB" style="color:black;font-style:normal"> </span></em></p><p class="MsoNormal"><em><span lang="EN-GB" style="color:black">Multipack</span></em></p><p class="MsoNormal"><em><span lang="EN-GB" style="color:black;font-style:normal">Bundle pack of 3 single packs.</span></em></p><p class="MsoNormal"><em><span lang="EN-GB" style="color:black;font-style:normal"> </span></em></p><p class="MsoNormal"><em><span lang="EN-GB" style="color:black;font-style:normal">Not all pack sizes may be marketed.</span></em></p><p class="MsoNormal"><em><span lang="EN-GB" style="color:black;font-style:normal"> </span></em></p><p class="MsoNormal" style="page-break-after:avoid"><em><b><span lang="EN-GB" style="color:black;font-style:normal">Marketing Authorisation Holder</span></b></em></p><p class="MsoNormal"><span lang="EN-GB">Otsuka Pharmaceutical Netherlands B.V.</span></p><p class="MsoNormal"><span lang="EN-GB">Herikerbergweg 292</span></p><p class="MsoNormal"><span lang="EN-GB">1101 CT, Amsterdam</span></p><p class="MsoNormal"><span lang="EN-GB">Netherlands</span></p><p class="MsoNormal"><em><span lang="EN-GB" style="color:black;font-style:normal"> </span></em></p><p class="MsoNormal"><em><b><span lang="EN-GB" style="color:black;font-style:normal">Manufacturer</span></b></em></p><p class="MsoNormal"><em><span lang="EN-GB" style="color:black;font-style:normal">H. Lundbeck A/S</span></em></p><p class="MsoNormal"><em><span lang="EN-GB" style="color:black;font-style:normal">Ottiliavej 9, 2500 Valby</span></em></p><p class="MsoNormal"><em><span lang="EN-GB" style="color:black;font-style:normal">Denmark</span></em></p><p class="MsoNormal"><em><span lang="EN-GB" style="color:black;font-style:normal"> </span></em></p><p class="MsoNormal"><span lang="EN-GB" style="background:silver">Elaiapharm</span></p><p class="MsoNormal"><span lang="EN-GB" style="background:silver">2881 Route des Crêtes Z.I Les Bouillides Sophia Antipolis</span></p><p class="MsoNormal"><span lang="EN-GB" style="background:silver">06550 Valbonne</span></p><p class="MsoNormal"><span lang="EN-GB" style="background:silver">France</span></p><p class="MsoNormal"><em><span lang="EN-GB" style="color:black;font-style:normal"> </span></em></p>
			</div>
		</text>
		
    	    
		
</section>
			    
    	    
		
	
</section>
							<!-- sections can repeat as necessary -->
						</Composition>
					</resource>
				</entry>
				
			</Bundle>
		</resource>
	</entry>
</Bundle>