<?xml version="1.0" encoding="UTF-8"?>
<!-- This is a template for a FHIR resource, and needs items (marked with "${}") replacing to make a real instance -->
<!-- The resulting instance is a Bundle of Bundles, each of which is a document (having a Composition, and supporting resources) -->
<!-- 2020-02-22 -->
<!-- This is for FHIR version R5 Preview 2 (May 2020) -->
<Bundle xmlns="http://hl7.org/fhir">
	<type value="collection"/>
	<!-- Repeat at this level per document -->
	<entry>
		<fullUrl value="urn:uuid:1353efa6-1858-4b62-b3e5-2d150c9fa1bb"/>
		<!-- Top level of each document is a also FHIR Bundle, of type "document"
		 see http://hl7.org/fhir/documents.html, http://hl7.org/fhir/bundle.html
	 	 All the other resources for this document are within this. -->
		<resource>
            <Bundle>
            	<!-- When PUTing, some servers mandate an id here to match the existing id -->
            	<id value="cd96881e-1d8c-4515-8458-ab665199b09c"/>
				<!-- document bundles must have an identifier (bdl-9) -->
				<identifier>
					<!-- possibly different identifier types may be needed here -->
					<system value="http://ema.europa.eu/fhir/identifier/documentid"/>
					<value value="${instance.bundle[n].Identifier}"/>
				</identifier>
				<!-- fixed code -->
				<type value="document" /> 
            	<!-- document bundles must have a date (bdl-10) -->
            	<timestamp value="2021-06-07T15:51:44Z"/>
				<!-- a repeating set of entry elements, each with a FHIR resource inside -->
				<entry>
					<!-- fullUrl is mandatory for each entry in document Bundle. It is a random uuid. http://build.fhir.org/bundle.html#bundle-unique -->
					<fullUrl value="urn:uuid:fd0cebd8-4e9d-4f10-9b2e-967119ff9c6d"/>
					<resource>
						<!-- the first resource must be Composition (bdl-11) -->
						<!-- This is the overall document structure. -->
						<!-- see definition http://hl7.org/fhir/composition.html, and similar for other resources -->
                        <Composition>
                        	<!-- images if requied within html text of this document -->
							
							<contained>
                                <Binary>
                                	<id value="image0"/>
                                	<!-- example format -->
                                	<contentType value="image/png"/>
									<!-- data is base 64 encoded, actual bytes of the image png file -->
                                	<data value=""/>
								</Binary>
							</contained>
							<!-- this exension is necessary per image -->
                <extension url="http://ema.europa.eu/fhir/extension/dummyValidationReference">
                        		<valueReference>
                        			<reference value="#image0"/>
                        		</valueReference>
               </extension>
              
							<contained>
                                <Binary>
                                	<id value="image1"/>
                                	<!-- example format -->
                                	<contentType value="image/png"/>
									<!-- data is base 64 encoded, actual bytes of the image png file -->
                                	<data value=""/>
								</Binary>
							</contained>
							<!-- this exension is necessary per image -->
                <extension url="http://ema.europa.eu/fhir/extension/dummyValidationReference">
                        		<valueReference>
                        			<reference value="#image1"/>
                        		</valueReference>
               </extension>
              
							<contained>
                                <Binary>
                                	<id value="image2"/>
                                	<!-- example format -->
                                	<contentType value="image/png"/>
									<!-- data is base 64 encoded, actual bytes of the image png file -->
                                	<data value=""/>
								</Binary>
							</contained>
							<!-- this exension is necessary per image -->
                <extension url="http://ema.europa.eu/fhir/extension/dummyValidationReference">
                        		<valueReference>
                        			<reference value="#image2"/>
                        		</valueReference>
               </extension>
              
							<contained>
                                <Binary>
                                	<id value="image3"/>
                                	<!-- example format -->
                                	<contentType value="image/png"/>
									<!-- data is base 64 encoded, actual bytes of the image png file -->
                                	<data value=""/>
								</Binary>
							</contained>
							<!-- this exension is necessary per image -->
                <extension url="http://ema.europa.eu/fhir/extension/dummyValidationReference">
                        		<valueReference>
                        			<reference value="#image3"/>
                        		</valueReference>
               </extension>
              
              
              <contained>
                          <Binary>
                            <id value="stylesheet0"/>
                            <!-- example format -->
                            <contentType value="stylesheet/css"/>
                            <!-- data is base 64 encoded, actual bytes of the image png file -->
                            <data value=""/>
                          </Binary>
                        </contained>
                        <!-- this exension is necessary per image -->
                        <extension url="http://ema.europa.eu/fhir/extension/dummyValidationReference">
                          <valueReference>
                            <reference value="#stylesheet0"/>
                          </valueReference>
                        </extension>
              
              <status value="final"/>
							<!-- document type -->
							<type>
								<coding>
									<system value="http://spor.ema.europa.eu/v1/lists/100000155531"/>
									<code value="${document[n].documentTypeCode}"/>
									<display value="${document[n].documentTypeDisplay}"/>
								</coding>
							</type>
							<subject>
								<!-- links to the List resource in this bundle - local url format -->
								<reference value="[]"/> <!-- local url format -->
								<!--reference value="${instance.bundle[n].listUuid}"/--> <!-- uuid url format. Possible alternate format may be neeed -->
							</subject>
                        	<!-- mandatory date of the document -->
                        	<date value="2021-02-01"/>
							<author>
								<identifier>
									<system value="http://spor.ema.europa.eu/v1/locations" />
									<value value="" />
								</identifier>
							</author>
                        	<title value="${document[n].title}"/>
							<relatesTo>
								<code value="appends"/>
								<targetReference>
									<!-- reference to another Composition -->
									<reference value="${document[n].relatesTo}"/>
								</targetReference>
							</relatesTo>
							<!-- main sections of the document, to follow the QRD template -->
	               			
<section>
	
		
			<title value="ΠΑΡΑΡΤΗΜΑ ΙΙ"/>
				<code>
					<coding>
						<system value="http://spor.ema.europa.eu/v1/example-sections"/>
						<code value="${document[n].section[n].subsection[n].typeCode}"/>
						<display value="${document[n].section[n].subsection[n].typeDisplay}"/>
					</coding>
				</code>
		<text>
			<status value="additional"/>
			<div xmlns="http://www.w3.org/1999/xhtml">
		    <p class="MsoNormal" style="margin-top:0in;margin-right:70.8pt;margin-bottom: 0in;margin-left:85.05pt;margin-bottom:.0001pt;text-indent:-28.35pt;line-height: normal"></p><p class="MsoNormal" style="margin-top:0in;margin-right:70.8pt;margin-bottom: 0in;margin-left:85.05pt;margin-bottom:.0001pt;text-indent:-35.4pt;line-height: normal"><b><span lang="EL">Α.        ΠΑΡΑΣΚΕΥΑΣΤΕΣ ΤΗΣ ΒΙΟΛΟΓΙΚΩΣ ΔΡΑΣΤΙΚΗΣ ΟΥΣΙΑΣ ΚΑΙ ΠΑΡΑΣΚΕΥΑΣΤΗΣ ΥΠΕΥΘΥΝΟΣ ΓΙΑ ΤΗΝ ΑΠΟΔΕΣΜΕΥΣΗ ΤΩΝ ΠΑΡΤΙΔΩΝ</span></b></p><p class="MsoNormal" style="margin-left:28.35pt;text-indent:-28.35pt;line-height: normal"></p><p class="MsoNormal" style="margin-top:0in;margin-right:70.9pt;margin-bottom: 0in;margin-left:85.05pt;margin-bottom:.0001pt;text-indent:-35.45pt;line-height: normal"><b><span lang="EL">Β.        ΟΡΟΙ Ή ΠΕΡΙΟΡΙΣΜΟΙ ΣΧΕΤΙΚΑ ΜΕ ΤΗ ΔΙΑΘΕΣΗ ΚΑΙ ΤΗ ΧΡΗΣΗ</span></b></p><p class="MsoNormal" style="margin-left:28.35pt;text-indent:-28.35pt;line-height: normal"></p><p class="MsoNormal" style="margin-top:0in;margin-right:77.95pt;margin-bottom: 0in;margin-left:85.05pt;margin-bottom:.0001pt;text-indent:-35.45pt;line-height: normal"><b><span lang="EL">Γ.         ΑΛΛΟΙ ΟΡΟΙ ΚΑΙ ΑΠΑΙΤΗΣΕΙΣ ΤΗΣ ΑΔΕΙΑΣ ΚΥΚΛΟΦΟΡΙΑΣ</span></b></p><p class="MsoNormal" style="margin-top:0in;margin-right:77.9pt;margin-bottom: 0in;margin-left:85.05pt;margin-bottom:.0001pt;text-indent:-42.5pt;line-height: normal"></p><p class="MsoNormal" style="margin-top:0in;margin-right:70.8pt;margin-bottom: 0in;margin-left:85.05pt;margin-bottom:.0001pt;text-indent:-35.4pt;line-height: normal"><b><span lang="EL">Δ.         ΟΡΟΙ Ή ΠΕΡΙΟΡΙΣΜΟΙ ΣΧΕΤΙΚΑ ΜΕ ΤΗΝ ΑΣΦΑΛΗ ΚΑΙ ΑΠΟΤΕΛΕΣΜΑΤΙΚΗ ΧΡΗΣΗ ΤΟΥ ΦΑΡΜΑΚΕΥΤΙΚΟΥ ΠΡΟΪΟΝΤΟΣ</span></b></p><p class="MsoNormal" style="margin-right:-.05pt;line-height:normal"></p><b><span lang="EL" style='font-size:11.0pt;font-family:"Times New Roman",serif'><br clear="all" style="page-break-before:always"/> </span></b><span lang="EL" style='font-size:11.0pt;font-family:"Times New Roman",serif'><br clear="all" style="page-break-before:always"/> </span><br clear="all" style="page-break-before:always"/><p class="TitleB"><span lang="EL">Α.      ΠΑΡΑΣΚΕΥΑΣΤΕΣ ΤΗΣ ΒΙΟΛΟΓΙΚΩΣ ΔΡΑΣΤΙΚΗΣ ΟΥΣΙΑΣ ΚΑΙ ΠΑΡΑΣΚΕΥΑΣΤΗΣ ΥΠΕΥΘΥΝΟΣ ΓΙΑ ΤΗΝ ΑΠΟΔΕΣΜΕΥΣΗ ΤΩΝ ΠΑΡΤΙΔΩΝ</span></p><p class="MsoNormal" style="line-height:normal"></p>
			</div>
		</text>
		
		
    	    
				
			    
						
		               
<section>
			<title value="Όνομα και διεύθυνση των παρασκευαστών της βιολογικώς δραστικής ουσίας"/>
				<code>
					<coding>
						<system value="http://spor.ema.europa.eu/v1/example-sections"/>
						<code value="${document[n].section[n].subsection[n].typeCode}"/>
						<display value="${document[n].section[n].subsection[n].typeDisplay}"/>
					</coding>
				</code>
		<text>
			<status value="additional"/>
			<div xmlns="http://www.w3.org/1999/xhtml">
		    <p class="MsoNormal" style="line-height:normal"></p><p class="MsoNormal" style="line-height:normal"><span lang="EN-GB">Biogen Inc</span></p><p class="MsoNormal" style="line-height:normal"><span lang="EN-GB">250 Binney Street</span></p><p class="MsoNormal" style="line-height:normal"><span lang="EN-GB">Cambridge, MA</span></p><p class="MsoNormal" style="line-height:normal"><span lang="EN-GB">02142</span></p><p class="MsoNormal" style="line-height:normal"><span lang="EL">Ηνωμένες</span><span lang="EL">Πολιτείες</span></p><p class="MsoNormal" style="line-height:normal"></p><p class="eCTD-Table-Text" style="margin:0in;page-break-after:auto"><span lang="EN-GB" style="font-size:11.0pt">Biogen Inc. </span></p><p class="eCTD-Table-Text" style="margin:0in;page-break-after:auto"><span lang="EN-GB" style="font-size:11.0pt">5000 Davis Drive</span></p><p class="eCTD-Table-Text" style="margin:0in;page-break-after:auto"><span lang="EN-GB" style="font-size:11.0pt">Research Triangle Park, NC 27709</span></p><p class="MsoNormal" style="line-height:normal"><span lang="EL">Ηνωμένες</span><span lang="EL">Πολιτείες</span></p><p class="MsoNormal" style="line-height:normal"></p>
			</div>
		</text>
		
    	    

			    
		               
<section>
			<title value="Όνομα και διεύθυνση του παρασκευαστή που είναι υπεύθυνος για την αποδέσμευση των παρτίδων"/>
				<code>
					<coding>
						<system value="http://spor.ema.europa.eu/v1/example-sections"/>
						<code value="${document[n].section[n].subsection[n].typeCode}"/>
						<display value="${document[n].section[n].subsection[n].typeDisplay}"/>
					</coding>
				</code>
		<text>
			<status value="additional"/>
			<div xmlns="http://www.w3.org/1999/xhtml">
		    <p class="MsoNormal" style="line-height:normal"></p><p class="MsoNormal" style="line-height:normal"><span lang="EL">Swedish Orphan Biovitrum AB (publ)</span></p><p class="MsoNormal" style="line-height:normal"><span lang="EL">Strandbergsgatan 49 </span></p><p class="MsoNormal" style="line-height:normal"><span lang="EL">SE-112 76 Stockholm</span></p><p class="MsoNormal" style="line-height:normal"><span lang="EL">Σουηδία</span></p><p class="MsoNormal" style="margin-left:28.35pt;text-indent:-28.35pt;line-height: normal"></p><p class="MsoNormal" style="line-height:normal"></p><p class="TitleB" style="page-break-after:avoid"><span lang="EL">Β.      ΟΡΟΙ Ή ΠΕΡΙΟΡΙΣΜΟΙ ΣΧΕΤΙΚΑ ΜΕ ΤΗ ΔΙΑΘΕΣΗ ΚΑΙ ΤΗ ΧΡΗΣΗ </span></p><p class="MsoNormal" style="line-height:normal;page-break-after:avoid"></p><p class="MsoNormal" style="line-height:normal"><span lang="EL">Φαρμακευτικό προϊόν για το οποίο απαιτείται περιορισμένη ιατρική συνταγή (βλ. παράρτημα Ι: Περίληψη των Χαρακτηριστικών του Προϊόντος, παράγραφος 4.2).</span></p><p class="MsoNormal" style="line-height:normal"></p><p class="MsoNormal" style="line-height:normal"></p><p class="TitleB" style="page-break-after:avoid"><span lang="EL">Γ.      ΑΛΛΟΙ ΟΡΟΙ ΚΑΙ ΑΠΑΙΤΗΣΕΙΣ ΤΗΣ ΑΔΕΙΑΣ ΚΥΚΛΟΦΟΡΙΑΣ</span></p><p class="MsoNormal" style="line-height:normal;page-break-after:avoid"><i><u><span lang="EL"></span></u></i></p>
			</div>
		</text>
		
    	    

			    
		               
<section>
			<title value="·Εκθέσεις περιοδικής παρακολούθησης της ασφάλειας (PSURs)"/>
				<code>
					<coding>
						<system value="http://spor.ema.europa.eu/v1/example-sections"/>
						<code value="${document[n].section[n].subsection[n].typeCode}"/>
						<display value="${document[n].section[n].subsection[n].typeDisplay}"/>
					</coding>
				</code>
		<text>
			<status value="additional"/>
			<div xmlns="http://www.w3.org/1999/xhtml">
		    <p class="MsoNormal" style="line-height:normal;page-break-after:avoid"></p><p class="MsoNormal" style="line-height:normal"><span lang="EL">Οι απαιτήσεις για την υποβολή των PSURs για το εν λόγω φαρμακευτικό προϊόν</span><span lang="EL">ορίζονται στον κατάλογο με τις ημερομηνίες αναφοράς της Ένωσης (κατάλογος EURD) που παρατίθεται στην παράγραφο 7, του άρθρου 107γ, της οδηγίας 2001/83/ΕΚ και κάθε επακόλουθης επικαιροποίησης όπως δημοσιεύεται στην ευρωπαϊκή δικτυακή πύλη για τα φάρμακα<i>. </i></span></p><p class="MsoNormal" style="line-height:normal"></p><p class="MsoNormal" style="line-height:normal"></p><p class="TitleB" style="page-break-after:avoid"><span lang="EL">Δ.      ΟΡΟΙ Ή ΠΕΡΙΟΡΙΣΜΟΙ ΣΧΕΤΙΚΑ ΜΕ ΤΗΝ ΑΣΦΑΛΗ ΚΑΙ ΑΠΟΤΕΛΕΣΜΑΤΙΚΗ ΧΡΗΣΗ ΤΟΥ ΦΑΡΜΑΚΕΥΤΙΚΟΥ ΠΡΟΪΟΝΤΟΣ</span></p><p class="MsoNormal" style="line-height:normal;page-break-after:avoid"><i><u><span lang="EL"></span></u></i></p>
			</div>
		</text>
		
    	    

			    
		               
<section>
			<title value="·Σχέδιο διαχείρισης κινδύνου (ΣΔΚ)"/>
				<code>
					<coding>
						<system value="http://spor.ema.europa.eu/v1/example-sections"/>
						<code value="${document[n].section[n].subsection[n].typeCode}"/>
						<display value="${document[n].section[n].subsection[n].typeDisplay}"/>
					</coding>
				</code>
		<text>
			<status value="additional"/>
			<div xmlns="http://www.w3.org/1999/xhtml">
		    <p class="MsoNormal" style="margin-left:.5in;line-height:normal;page-break-after: avoid"></p><p class="MsoNormal" style="line-height:normal"><span lang="EL">Ο Κάτοχος Άδειας Κυκλοφορίας (ΚΑΚ) θα διεξαγάγει τις απαιτούμενες δραστηριότητες και παρεμβάσεις φαρμακοεπαγρύπνησης όπως παρουσιάζονται στο συμφωνηθέν ΣΔΚ που παρουσιάζεται στην ενότητα 1.8.2 της άδειας κυκλοφορίας και οποιεσδήποτε επακόλουθες εγκεκριμένες αναθεωρήσεις του ΣΔΚ.</span></p><p class="MsoNormal" style="line-height:normal"></p><p class="MsoNormal" style="line-height:normal;page-break-after:avoid"><span lang="EL">Ένα επικαιροποιημένο ΣΔΚ θα πρέπει να κατατεθεί<i>:</i></span></p><p class="MsoNormal" style="margin-left:35.7pt;text-indent:-17.85pt;line-height: normal;page-break-after:avoid"><span lang="EL" style="font-family:Symbol">·</span><span lang="EL">Μετά από αίτημα του Ευρωπαϊκού Οργανισμού Φαρμάκων,</span></p><p class="MsoNormal" style="margin-left:28.35pt;text-indent:-10.5pt;line-height: normal"><span lang="EL" style="font-family:Symbol">·</span><span lang="EL">Οποτεδήποτε τροποποιείται το σύστημα διαχείρισης κινδύνου, ειδικά ως αποτέλεσμα λήψης νέων πληροφοριών που μπορούν να επιφέρουν σημαντική αλλαγή στη σχέση οφέλους-κινδύνου ή ως αποτέλεσμα της επίτευξης ενός σημαντικού οροσήμου (φαρμακοεπαγρύπνηση ή ελαχιστοποίηση κινδύνου).</span></p><p class="MsoNormal" style="line-height:normal"></p><b><span lang="EL" style='font-size:11.0pt;font-family:"Times New Roman",serif'><br clear="all" style="page-break-before:always"/> </span></b><span lang="EL" style='font-size:11.0pt;font-family:"Times New Roman",serif'><br clear="all" style="page-break-before:always"/> </span><br clear="all" style="page-break-before:always"/><p class="MsoNormal" style="margin-left:28.35pt;text-indent:-28.35pt;line-height: normal"></p><p class="MsoNormal" style="margin-right:-.1pt;line-height:normal"></p><p class="MsoNormal" style="margin-right:-.05pt;line-height:normal"><u><span lang="EL"></span></u></p><p class="MsoNormal" style="line-height:normal"></p><p class="MsoNormal" style="line-height:normal"></p><p class="MsoNormal" style="line-height:normal"></p><p class="MsoNormal" style="line-height:normal"></p><p class="MsoNormal" style="line-height:normal"></p><p class="MsoNormal" style="line-height:normal"></p><p class="MsoNormal" style="margin-right:-.05pt;line-height:normal"><u><span lang="EL"></span></u></p><p class="MsoNormal" style="line-height:normal"></p><p class="MsoNormal" style="line-height:normal"></p><p class="MsoNormal" style="line-height:normal"></p><p class="MsoNormal" style="line-height:normal"></p><p class="MsoNormal" style="line-height:normal"></p><p class="MsoNormal" style="line-height:normal"></p><p class="MsoNormal" style="line-height:normal"></p><p class="MsoNormal" style="line-height:normal"></p><p class="MsoNormal" style="line-height:normal"></p><p class="MsoNormal" style="line-height:normal"></p><p class="MsoNormal" style="line-height:normal"></p><p class="MsoNormal" style="line-height:normal"></p><p class="MsoNormal" style="line-height:normal"></p><p class="MsoNormal" style="line-height:normal"></p><p align="center" class="MsoNormal" style="text-align:center;line-height:normal"><b><span lang="EL">ΠΑΡΑΡΤΗΜΑ III</span></b></p><p align="center" class="MsoNormal" style="text-align:center;line-height:normal"></p><p align="center" class="MsoNormal" style="text-align:center;line-height:normal"><b><span lang="EL">ΕΠΙΣΗΜΑΝΣΗ ΚΑΙ ΦΥΛΛΟ ΟΔΗΓΙΩΝ ΧΡΗΣΗΣ</span></b></p><span lang="EL" style='font-size:11.0pt;font-family:"Times New Roman",serif'><br clear="all" style="page-break-before:always"/> </span><br clear="all" style="page-break-before:always"/><p class="MsoNormal" style="line-height:normal"></p><p class="MsoNormal" style="line-height:normal"></p><p class="MsoNormal" style="line-height:normal"></p><p class="MsoNormal" style="line-height:normal"></p><p class="MsoNormal" style="line-height:normal"></p><p class="MsoNormal" style="line-height:normal"></p><p class="MsoNormal" style="line-height:normal"></p><p class="MsoNormal" style="line-height:normal"></p><p class="MsoNormal" style="line-height:normal"></p><p class="MsoNormal" style="line-height:normal"></p><p class="MsoNormal" style="line-height:normal"></p><p class="MsoNormal" style="line-height:normal"></p><p class="MsoNormal" style="line-height:normal"></p><p class="MsoNormal" style="line-height:normal"></p><p class="MsoNormal" style="line-height:normal"></p><p class="MsoNormal" style="line-height:normal"></p><p class="MsoNormal" style="line-height:normal"></p><p class="MsoNormal" style="line-height:normal"></p><p class="MsoNormal" style="line-height:normal"></p><p class="MsoNormal" style="line-height:normal"></p><p class="MsoNormal" style="line-height:normal"></p><p class="MsoNormal" style="line-height:normal"></p><p class="MsoNormal" style="line-height:normal"></p><p class="MsoNormal" style="line-height:normal"></p><p class="TitleA"><span lang="EL">A. ΕΠΙΣΗΜΑΝΣΗ</span></p><b><span lang="EL" style='font-size:11.0pt;font-family:"Times New Roman",serif'><br clear="all" style="page-break-before:always"/> </span></b><span lang="EL" style='font-size:11.0pt;font-family:"Times New Roman",serif'><br clear="all" style="page-break-before:always"/> </span><br clear="all" style="page-break-before:always"/><div style="border:solid windowtext 1.0pt;padding:1.0pt 4.0pt 1.0pt 4.0pt"> <p class="MsoNormal" style="line-height:normal;border:none;padding:0in"><b><span lang="EL">ΕΝΔΕΙΞΕΙΣ ΠΟΥ ΠΡΕΠΕΙ ΝΑ ΑΝΑΓΡΑΦΟΝΤΑΙ ΣΤΗΝ ΕΞΩΤΕΡΙΚΗ ΣΥΣΚΕΥΑΣΙΑ</span></b></p> <p class="MsoNormal" style="margin-left:28.35pt;text-indent:-28.35pt;line-height: normal;border:none;padding:0in"></p> <p class="MsoNormal" style="line-height:normal;border:none;padding:0in"><b><span lang="EL">ΧΑΡΤΙΝΟ ΚΟΥΤΙ</span></b></p> </div><p class="MsoNormal" style="line-height:normal"></p><p class="MsoNormal" style="line-height:normal"></p><div style="border:solid windowtext 1.0pt;padding:1.0pt 4.0pt 1.0pt 4.0pt"> <p class="MsoNormal" style="margin-left:28.35pt;text-indent:-28.35pt;line-height: normal;page-break-after:avoid;border:none;padding:0in"><b><span lang="EL">1.       ΟΝΟΜΑΣΙΑ ΤΟΥ ΦΑΡΜΑΚΕΥΤΙΚΟΥ ΠΡΟΪΟΝΤΟΣ</span></b></p> </div><p class="MsoNormal" style="line-height:normal"></p><p class="MsoNormal" style="line-height:normal"><span lang="EL">ELOCTA </span><span lang="EL">250 IU </span><span lang="EL">κόνις και διαλύτης για ενέσιμο διάλυμα</span></p><p class="MsoNormal" style="line-height:normal"></p><p class="MsoNormal" style="line-height:normal"><span lang="EL">efmoroctocog alfa </span></p><p class="MsoNormal" style="line-height:normal"><span lang="EL">(ανασυνδυασμένος παράγοντας πήξης VIII, πρωτεΐνη σύντηξης Fc)</span></p><p class="MsoNormal" style="line-height:normal"></p><p class="MsoNormal" style="line-height:normal"></p><div style="border:solid windowtext 1.0pt;padding:1.0pt 4.0pt 1.0pt 4.0pt"> <p class="MsoNormal" style="margin-left:28.35pt;text-indent:-28.35pt;line-height: normal;page-break-after:avoid;border:none;padding:0in"><b><span lang="EL">2.       ΣΥΝΘΕΣΗ ΣΕ ΔΡΑΣΤΙΚΗ(ΕΣ) ΟΥΣΙΑ(ΕΣ)</span></b></p> </div><p class="MsoNormal" style="line-height:normal"></p><p class="MsoNormal" style="line-height:normal"><span lang="EL">1 φιαλίδιο κόνεως περιέχει 250 IU efmoroctocog alfa (περ. 83 IU/ml μετά την ανασύσταση)</span></p><p class="MsoNormal" style="line-height:normal"></p><p class="MsoNormal" style="line-height:normal"></p><div style="border:solid windowtext 1.0pt;padding:1.0pt 4.0pt 1.0pt 4.0pt"> <p class="MsoNormal" style="margin-left:28.35pt;text-indent:-28.35pt;line-height: normal;page-break-after:avoid;border:none;padding:0in"><b><span lang="EL">3.       ΚΑΤΑΛΟΓΟΣ ΕΚΔΟΧΩΝ</span></b></p> </div><p class="MsoNormal" style="line-height:normal;page-break-after:avoid"></p><p class="MsoNormal" style="line-height:normal;text-autospace:none"><span lang="EL" style="color:black;background:#BFBFBF">Κόνις:</span><span lang="EL"> σακχαρόζη, χλωριούχο νάτριο, ιστιδίνη, δίυδρο χλωριούχο ασβέστιο, πολυσορβικό 20, υδροξείδιο του νατρίου, υδροχλωρικό οξύ.</span></p><p class="MsoNormal" style="line-height:normal;text-autospace:none"></p><p class="MsoNormal" style="line-height:normal;text-autospace:none"><span lang="EL">Διαλύτης: ύδωρ για ενέσιμα</span></p><p class="MsoNormal" style="line-height:normal;text-autospace:none"></p><p class="MsoNormal" style="line-height:normal;text-autospace:none"></p><div style="border:solid windowtext 1.0pt;padding:1.0pt 4.0pt 1.0pt 4.0pt"> <p class="MsoNormal" style="margin-left:28.35pt;text-indent:-28.35pt;line-height: normal;page-break-after:avoid;border:none;padding:0in"><b><span lang="EL">4.       ΦΑΡΜΑΚΟΤΕΧΝΙΚΗ ΜΟΡΦΗ ΚΑΙ ΠΕΡΙΕΧΟΜΕΝΟ</span></b></p> </div><p class="MsoNormal" style="line-height:normal;page-break-after:avoid"></p><p class="MsoNormal" style="line-height:normal;page-break-after:avoid"><span lang="EL" style="color:black;background:#BFBFBF">Κόνις και διαλύτης για ενέσιμο διάλυμα</span></p><p class="MsoNormal" style="line-height:normal;page-break-after:avoid"></p><p class="MsoNormal" style="line-height:normal"><span lang="EL">Περιεχόμενο: 1 φιαλίδιο κόνεως, 3 ml διαλύτη σε προγεμισμένη σύριγγα, 1 ράβδος εμβόλου, 1 προσαρμογέας φιαλιδίου, 1 σετ έγχυσης, 2 ταμπόν με οινόπνευμα, 2 έμπλαστρα, 1 γάζα.</span></p><p class="MsoNormal" style="line-height:normal"></p><p class="MsoNormal" style="line-height:normal"></p><div style="border:solid windowtext 1.0pt;padding:1.0pt 4.0pt 1.0pt 4.0pt"> <p class="MsoNormal" style="margin-left:28.35pt;text-indent:-28.35pt;line-height: normal;page-break-after:avoid;border:none;padding:0in"><b><span lang="EL">5.       ΤΡΟΠΟΣ ΚΑΙ ΟΔΟΣ(ΟΙ) ΧΟΡΗΓΗΣΗΣ</span></b></p> </div><p class="MsoNormal" style="line-height:normal"></p><p class="MsoNormal" style="line-height:normal"><span lang="EL">Ενδοφλέβια χρήση, μετά την ανασύσταση.</span></p><p class="MsoNormal" style="line-height:normal"><span lang="EL">Διαβάστε το φύλλο οδηγιών χρήσης πριν από τη χρήση.</span></p><p class="MsoNormal" style="line-height:normal"></p><p class="MsoNormal" style="line-height:normal"><span lang="EL">Ένα βίντεο οδηγιών για την προετοιμασία και χορήγηση του ELOCTA είναι διαθέσιμο σαρώνοντας τον κωδικό QR με ένα smartphone </span><span lang="EL">ή μέσω του δικτυακού τόπου</span><span lang="EL">.</span></p><p class="MsoNormal" style="line-height:normal"></p><p class="MsoNormal" style="line-height:normal"><span lang="EL" style="color:black; background:#BFBFBF">Κωδικός QR που θα συμπεριληφθεί+</span><a name="_Hlk483921855"></a><a href="http://www.eloct-instructions.com/"><span lang="EL">http://www.elocta-instructions.com</span></a></p><p class="MsoNormal" style="line-height:normal"></p><p class="MsoNormal" style="line-height:normal"></p><div style="border:solid windowtext 1.0pt;padding:1.0pt 4.0pt 1.0pt 4.0pt"> <p class="MsoNormal" style="margin-left:28.35pt;text-indent:-28.35pt;line-height: normal;page-break-after:avoid;border:none;padding:0in"><b><span lang="EL">6.       ΕΙΔΙΚΗ ΠΡΟΕΙΔΟΠΟΙΗΣΗ ΣΥΜΦΩΝΑ ΜΕ ΤΗΝ ΟΠΟΙΑ ΤΟ ΦΑΡΜΑΚΕΥΤΙΚΟ ΠΡΟΪΟΝ ΠΡΕΠΕΙ ΝΑ ΦΥΛΑΣΣΕΤΑΙ ΣΕ ΘΕΣΗ ΤΗΝ ΟΠΟΙΑ ΔΕΝ ΒΛΕΠΟΥΝ ΚΑΙ ΔΕΝ ΠΡΟΣΕΓΓΙΖΟΥΝ ΤΑ ΠΑΙΔΙΑ</span></b></p> </div><p class="MsoNormal" style="line-height:normal;page-break-after:avoid"></p><p class="MsoNormal" style="line-height:normal"><span lang="EL">Να φυλάσσεται σε θέση, την οποία δεν βλέπουν και δεν προσεγγίζουν τα παιδιά.</span></p><p class="MsoNormal" style="line-height:normal"></p><p class="MsoNormal" style="line-height:normal"></p><div style="border:solid windowtext 1.0pt;padding:1.0pt 4.0pt 1.0pt 4.0pt"> <p class="MsoNormal" style="margin-left:28.35pt;text-indent:-28.35pt;line-height: normal;page-break-after:avoid;border:none;padding:0in"><b><span lang="EL">7.       ΑΛΛΗ(ΕΣ) ΕΙΔΙΚΗ(ΕΣ) ΠΡΟΕΙΔΟΠΟΙΗΣΗ(ΕΙΣ), ΕΑΝ ΕΙΝΑΙ ΑΠΑΡΑΙΤΗΤΗ(ΕΣ)</span></b></p> </div><p class="MsoNormal" style="line-height:normal"></p><p class="MsoNormal" style="line-height:normal"></p><div style="border:solid windowtext 1.0pt;padding:1.0pt 4.0pt 1.0pt 4.0pt"> <p class="MsoNormal" style="margin-left:28.35pt;text-indent:-28.35pt;line-height: normal;page-break-after:avoid;border:none;padding:0in"><b><span lang="EL">8.       ΗΜΕΡΟΜΗΝΙΑ ΛΗΞΗΣ</span></b></p> </div><p class="MsoNormal" style="line-height:normal"></p><p class="MsoNormal" style="line-height:normal"><span lang="EL">EXP</span></p><p class="MsoNormal" style="line-height:normal"></p><p class="MsoNormal" style="line-height:normal"><span lang="EL">Χρησιμοποιήστε εντός 6 ωρών μετά την ανασύσταση.</span></p><p class="MsoNormal" style="line-height:normal"></p><p class="MsoNormal" style="line-height:normal"></p><div style="border:solid windowtext 1.0pt;padding:1.0pt 4.0pt 1.0pt 4.0pt"> <p class="MsoNormal" style="margin-left:28.35pt;text-indent:-28.35pt;line-height: normal;page-break-after:avoid;border:none;padding:0in"><b><span lang="EL">9.       ΕΙΔΙΚΕΣ ΣΥΝΘΗΚΕΣ ΦΥΛΑΞΗΣ</span></b></p> </div><p class="MsoNormal" style="line-height:normal;page-break-after:avoid"></p><p class="MsoNormal" style="line-height:normal"><span lang="EL">Φυλάσσετε σε ψυγείο.</span></p><p class="MsoNormal" style="line-height:normal"><span lang="EL">Μην καταψύχετε.</span></p><p class="MsoNormal" style="line-height:normal"><span lang="EL">Φυλάσσετε το φιαλίδιο στο εξωτερικό κουτί για να προστατεύεται από το φως.</span></p><p class="MsoNormal" style="line-height:normal"><span lang="EL">Μπορεί να φυλάσσεται σε θερμοκρασία δωματίου (μέχρι 30°C) για μια μεμονωμένη περίοδο μέχρι 6 μήνες. Δεν πρέπει να επιστραφεί στο ψυγείο μετά τη φύλαξη σε θερμοκρασία δωματίου. Ημερομηνία που βγήκε από το ψυγείο:</span></p><p class="MsoNormal" style="line-height:normal"></p><p class="MsoNormal" style="margin-left:28.35pt;text-indent:-28.35pt;line-height: normal"></p><div style="border:solid windowtext 1.0pt;padding:1.0pt 4.0pt 1.0pt 4.0pt"> <p class="MsoNormal" style="margin-left:28.35pt;text-indent:-28.35pt;line-height: normal;page-break-after:avoid;border:none;padding:0in"><b><span lang="EL">10.     ΙΔΙΑΙΤΕΡΕΣ ΠΡΟΦΥΛΑΞΕΙΣ ΓΙΑ ΤΗΝ ΑΠΟΡΡΙΨΗ ΤΩΝ ΜΗ ΧΡΗΣΙΜΟΠΟΙΗΘΕΝΤΩΝ ΦΑΡΜΑΚΕΥΤΙΚΩΝ ΠΡΟΪΟΝΤΩΝ Ή ΤΩΝ ΥΠΟΛΕΙΜΜΑΤΩΝ ΠΟΥ ΠΡΟΕΡΧΟΝΤΑΙ ΑΠΟ ΑΥΤΑ, ΕΦΟΣΟΝ ΑΠΑΙΤΕΙΤΑΙ</span></b></p> </div><p class="MsoNormal" style="line-height:normal;page-break-after:avoid"></p><p class="MsoNormal" style="line-height:normal"></p><div style="border:solid windowtext 1.0pt;padding:1.0pt 4.0pt 1.0pt 4.0pt"> <p class="MsoNormal" style="margin-left:28.35pt;text-indent:-28.35pt;line-height: normal;page-break-after:avoid;border:none;padding:0in"><b><span lang="EL">11.     ΟΝΟΜΑ ΚΑΙ ΔΙΕΥΘΥΝΣΗ ΚΑΤΟΧΟΥ ΤΗΣ ΑΔΕΙΑΣ ΚΥΚΛΟΦΟΡΙΑΣ</span></b></p> </div><p class="MsoNormal" style="line-height:normal;page-break-after:avoid"></p><p class="MsoNormal" style="line-height:normal"><span lang="EL">Swedish Orphan Biovitrum AB (publ)</span></p><p class="MsoNormal" style="line-height:normal"><span lang="EL">SE-112 76 Stockholm</span></p><p class="MsoNormal" style="line-height:normal"><span lang="EL">Σουηδία</span></p><p class="MsoNormal" style="line-height:normal"></p><p class="MsoNormal" style="line-height:normal"></p><div style="border:solid windowtext 1.0pt;padding:1.0pt 4.0pt 1.0pt 4.0pt"> <p class="MsoNormal" style="margin-left:28.35pt;text-indent:-28.35pt;line-height: normal;page-break-after:avoid;border:none;padding:0in"><b><span lang="EL">12.     ΑΡΙΘΜΟΣ(ΟΙ) ΑΔΕΙΑΣ ΚΥΚΛΟΦΟΡΙΑΣ</span></b></p> </div><p class="MsoNormal" style="line-height:normal"></p><p class="MsoNormal" style="line-height:normal"><span lang="EL">EU/1/15/1046/001</span></p><p class="MsoNormal" style="line-height:normal"></p><p class="MsoNormal" style="line-height:normal"></p><div style="border:solid windowtext 1.0pt;padding:1.0pt 4.0pt 1.0pt 4.0pt"> <p class="MsoNormal" style="margin-left:28.35pt;text-indent:-28.35pt;line-height: normal;page-break-after:avoid;border:none;padding:0in"><b><span lang="EL">13.     ΑΡΙΘΜΟΣ ΠΑΡΤΙΔΑΣ</span></b></p> </div><p class="MsoNormal" style="line-height:normal"></p><p class="MsoNormal" style="line-height:normal"><span lang="EL">Lot</span></p><p class="MsoNormal" style="line-height:normal"></p><p class="MsoNormal" style="line-height:normal"></p><div style="border:solid windowtext 1.0pt;padding:1.0pt 4.0pt 1.0pt 4.0pt"> <p class="MsoNormal" style="margin-left:28.35pt;text-indent:-28.35pt;line-height: normal;page-break-after:avoid;border:none;padding:0in"><b><span lang="EL">14.     ΓΕΝΙΚΗ ΚΑΤΑΤΑΞΗ ΓΙΑ ΤΗ ΔΙΑΘΕΣΗ</span></b></p> </div><p class="MsoNormal" style="line-height:normal"></p><p class="MsoNormal" style="line-height:normal"></p><div style="border:solid windowtext 1.0pt;padding:1.0pt 4.0pt 1.0pt 4.0pt"> <p class="MsoNormal" style="margin-left:28.35pt;text-indent:-28.35pt;line-height: normal;page-break-after:avoid;border:none;padding:0in"><b><span lang="EL">15.     ΟΔΗΓΙΕΣ ΧΡΗΣΗΣ</span></b></p> </div><p class="MsoNormal" style="line-height:normal"></p><p class="MsoNormal" style="line-height:normal"></p><p class="MsoNormal" style="line-height:normal"></p><div style="border:solid windowtext 1.0pt;padding:1.0pt 4.0pt 1.0pt 4.0pt"> <p class="MsoNormal" style="margin-left:28.35pt;text-indent:-28.35pt;line-height: normal;page-break-after:avoid;border:none;padding:0in"><b><span lang="EL">16.     ΠΛΗΡΟΦΟΡΙΕΣ ΣΕ BRAILLE</span></b></p> </div><p class="MsoNormal" style="line-height:normal;page-break-after:avoid"></p><p class="MsoNormal" style="line-height:normal"><span lang="EL">ELOCTA 250</span></p><p class="MsoNormal" style="line-height:normal"></p><p class="MsoNormal" style="line-height:normal"></p><div style="border:solid windowtext 1.0pt;padding:1.0pt 4.0pt 1.0pt 4.0pt"> <p class="MsoNormal" style="margin-left:28.35pt;text-indent:-28.35pt;line-height: normal;page-break-after:avoid;border:none;padding:0in"><b><span lang="EL">17.     ΜΟΝΑΔΙΚΟΣ ΑΝΑΓΝΩΡΙΣΤΙΚΟΣ ΚΩΔΙΚΟΣ – ΔΙΣΔΙΑΣΤΑΤΟΣ ΓΡΑΜΜΩΤΟΣ ΚΩΔΙΚΑΣ (2D)</span></b></p> </div><p class="MsoNormal" style="line-height:normal;page-break-after:avoid"></p><p class="MsoNormal" style="line-height:normal"><span lang="EL" style="color:black; background:#D9D9D9">Δισδιάστατος γραμμωτός κώδικας (2D) που φέρει τον περιληφθέντα μοναδικό αναγνωριστικό κωδικό.</span></p><p class="MsoNormal" style="line-height:normal"></p><p class="MsoNormal" style="line-height:normal"></p><div style="border:solid windowtext 1.0pt;padding:1.0pt 4.0pt 1.0pt 4.0pt"> <p class="MsoNormal" style="margin-left:28.35pt;text-indent:-28.35pt;line-height: normal;page-break-after:avoid;border:none;padding:0in"><b><span lang="EL">18.     ΜΟΝΑΔΙΚΟΣ ΑΝΑΓΝΩΡΙΣΤΙΚΟΣ ΚΩΔΙΚΟΣ – ΔΕΔΟΜΕΝΑ ΑΝΑΓΝΩΣΙΜΑ ΑΠΟ ΤΟΝ ΑΝΘΡΩΠΟ</span></b></p> </div><p class="MsoNormal" style="line-height:normal;page-break-after:avoid"></p><p class="MsoNormal" style="line-height:normal;page-break-after:avoid"><span lang="EL">PC</span></p><p class="MsoNormal" style="line-height:normal;page-break-after:avoid"><span lang="EL">SN</span></p><p class="MsoNormal" style="line-height:normal"><span lang="EL">NN</span></p><p class="MsoNormal" style="line-height:normal"></p><span lang="EL" style='font-size:11.0pt;font-family:"Times New Roman",serif; color:black;background:#CCCCCC'><br clear="all" style="page-break-before:always"/> </span><br clear="all" style="page-break-before:always"/><p class="MsoNormal" style="line-height:normal"></p><div style="border:solid windowtext 1.0pt;padding:1.0pt 4.0pt 1.0pt 4.0pt"> <p class="MsoNormal" style="line-height:normal;border:none;padding:0in"><b><span lang="EL">ΕΛΑΧΙΣΤΕΣ ΕΝΔΕΙΞΕΙΣ ΠΟΥ ΠΡΕΠΕΙ ΝΑ ΑΝΑΓΡΑΦΟΝΤΑΙ ΣΤΙΣ ΜΙΚΡΕΣ ΣΤΟΙΧΕΙΩΔΕΙΣ ΣΥΣΚΕΥΑΣΙΕΣ</span></b></p> <p class="MsoNormal" style="line-height:normal;border:none;padding:0in"></p> <p class="MsoNormal" style="line-height:normal;border:none;padding:0in"><b><span lang="EL">ΕΠΙΣΗΜΑΝΣΗ ΦΙΑΛΙΔΙΟΥ</span></b></p> </div><p class="MsoNormal" style="line-height:normal"></p><p class="MsoNormal" style="line-height:normal"></p><div style="border:solid windowtext 1.0pt;padding:1.0pt 4.0pt 1.0pt 4.0pt"> <p class="MsoNormal" style="margin-left:28.35pt;text-indent:-28.35pt;line-height: normal;page-break-after:avoid;border:none;padding:0in"><b><span lang="EL">1.       ΟΝΟΜΑΣΙΑ ΤΟΥ ΦΑΡΜΑΚΕΥΤΙΚΟΥ ΠΡΟΪΟΝΤΟΣ ΚΑΙ ΟΔΟΣ(ΟΙ) ΧΟΡΗΓΗΣΗΣ</span></b></p> </div><p class="MsoNormal" style="margin-left:28.35pt;text-indent:-28.35pt;line-height: normal"></p><p class="MsoNormal" style="line-height:normal"><span lang="EL">ELOCTA </span><span lang="EL">250 IU </span><span lang="EL">κόνις για ενέσιμο</span></p><p class="MsoNormal" style="line-height:normal"></p><p class="MsoNormal" style="line-height:normal"><span lang="EL">efmoroctocog alfa</span></p><p class="MsoNormal" style="line-height:normal"><span lang="EL">ανασυνδυασμένος παράγοντας πήξης VIII</span></p><p class="MsoNormal" style="line-height:normal"><span lang="EL">IV</span></p><p class="MsoNormal" style="line-height:normal"></p><p class="MsoNormal" style="line-height:normal"></p><div style="border:solid windowtext 1.0pt;padding:1.0pt 4.0pt 1.0pt 4.0pt"> <p class="MsoNormal" style="margin-left:28.35pt;text-indent:-28.35pt;line-height: normal;page-break-after:avoid;border:none;padding:0in"><b><span lang="EL">2.       ΤΡΟΠΟΣ ΧΟΡΗΓΗΣΗΣ</span></b></p> </div><p class="MsoNormal" style="line-height:normal"></p><p class="MsoNormal" style="line-height:normal"></p><div style="border:solid windowtext 1.0pt;padding:1.0pt 4.0pt 1.0pt 4.0pt"> <p class="MsoNormal" style="margin-left:28.35pt;text-indent:-28.35pt;line-height: normal;page-break-after:avoid;border:none;padding:0in"><b><span lang="EL">3.       ΗΜΕΡΟΜΗΝΙΑ ΛΗΞΗΣ</span></b></p> </div><p class="MsoNormal" style="line-height:normal"></p><p class="MsoNormal" style="line-height:normal"><span lang="EL">EXP</span></p><p class="MsoNormal" style="line-height:normal"></p><p class="MsoNormal" style="line-height:normal"></p><div style="border:solid windowtext 1.0pt;padding:1.0pt 4.0pt 1.0pt 4.0pt"> <p class="MsoNormal" style="margin-left:28.35pt;text-indent:-28.35pt;line-height: normal;page-break-after:avoid;border:none;padding:0in"><b><span lang="EL">4.       ΑΡΙΘΜΟΣ ΠΑΡΤΙΔΑΣ</span></b></p> </div><p class="MsoNormal" style="margin-right:5.65pt;line-height:normal"></p><p class="MsoNormal" style="margin-right:5.65pt;line-height:normal"><span lang="EL">Lot</span></p><p class="MsoNormal" style="margin-right:5.65pt;line-height:normal"></p><p class="MsoNormal" style="margin-right:5.65pt;line-height:normal"></p><div style="border:solid windowtext 1.0pt;padding:1.0pt 4.0pt 1.0pt 4.0pt"> <p class="MsoNormal" style="margin-left:28.35pt;text-indent:-28.35pt;line-height: normal;page-break-after:avoid;border:none;padding:0in"><b><span lang="EL">5.       ΠΕΡΙΕΧΟΜΕΝΟ ΚΑΤΑ ΒΑΡΟΣ, ΚΑΤ’ ΟΓΚΟ Ή ΚΑΤΑ ΜΟΝΑΔΑ</span></b></p> </div><p class="MsoNormal" style="margin-right:5.65pt;line-height:normal;page-break-after: avoid"></p><p class="MsoNormal" style="line-height:normal"><span lang="EL">250 IU</span></p><p class="MsoNormal" style="margin-right:5.65pt;line-height:normal"></p><p class="MsoNormal" style="margin-right:5.65pt;line-height:normal"></p><div style="border:solid windowtext 1.0pt;padding:1.0pt 4.0pt 1.0pt 4.0pt"> <p class="MsoNormal" style="margin-left:28.35pt;text-indent:-28.35pt;line-height: normal;page-break-after:avoid;border:none;padding:0in"><b><span lang="EL">6.       ΑΛΛΑ ΣΤΟΙΧΕΙΑ</span></b></p> </div><p class="MsoNormal" style="margin-right:5.65pt;line-height:normal"></p><span lang="EL" style='font-size:11.0pt;font-family:"Times New Roman",serif'><br clear="all" style="page-break-before:always"/> </span><br clear="all" style="page-break-before:always"/><div style="border:solid windowtext 1.0pt;padding:1.0pt 4.0pt 1.0pt 4.0pt"> <p class="MsoNormal" style="line-height:normal;border:none;padding:0in"><b><span lang="EL">ΕΝΔΕΙΞΕΙΣ ΠΟΥ ΠΡΕΠΕΙ ΝΑ ΑΝΑΓΡΑΦΟΝΤΑΙ ΣΤΗΝ ΕΞΩΤΕΡΙΚΗ ΣΥΣΚΕΥΑΣΙΑ</span></b></p> <p class="MsoNormal" style="margin-left:28.35pt;text-indent:-28.35pt;line-height: normal;border:none;padding:0in"></p> <p class="MsoNormal" style="line-height:normal;border:none;padding:0in"><b><span lang="EL">ΧΑΡΤΙΝΟ ΚΟΥΤΙ</span></b></p> </div><p class="MsoNormal" style="line-height:normal"></p><p class="MsoNormal" style="line-height:normal"></p><div style="border:solid windowtext 1.0pt;padding:1.0pt 4.0pt 1.0pt 4.0pt"> <p class="MsoNormal" style="margin-left:28.35pt;text-indent:-28.35pt;line-height: normal;page-break-after:avoid;border:none;padding:0in"><b><span lang="EL">1.       ΟΝΟΜΑΣΙΑ ΤΟΥ ΦΑΡΜΑΚΕΥΤΙΚΟΥ ΠΡΟΪΟΝΤΟΣ</span></b></p> </div><p class="MsoNormal" style="line-height:normal"></p><p class="MsoNormal" style="line-height:normal"><span lang="EL">ELOCTA 500 IU κόνις και διαλύτης για ενέσιμο διάλυμα</span></p><p class="MsoNormal" style="line-height:normal"></p><p class="MsoNormal" style="line-height:normal"><span lang="EL">efmoroctocog alfa </span></p><p class="MsoNormal" style="line-height:normal"><span lang="EL">(ανασυνδυασμένος παράγοντας πήξης VIII, πρωτεΐνη σύντηξης Fc)</span></p><p class="MsoNormal" style="line-height:normal"></p><p class="MsoNormal" style="line-height:normal"></p><div style="border:solid windowtext 1.0pt;padding:1.0pt 4.0pt 1.0pt 4.0pt"> <p class="MsoNormal" style="margin-left:28.35pt;text-indent:-28.35pt;line-height: normal;page-break-after:avoid;border:none;padding:0in"><b><span lang="EL">2.       ΣΥΝΘΕΣΗ ΣΕ ΔΡΑΣΤΙΚΗ(ΕΣ) ΟΥΣΙΑ(ΕΣ)</span></b></p> </div><p class="MsoNormal" style="line-height:normal"></p><p class="MsoNormal" style="line-height:normal"><span lang="EL">1 φιαλίδιο κόνεως περιέχει </span><span lang="EL">500 IU efmoroctocog alfa (περ. 167 IU/ml μετά την ανασύσταση)</span></p><p class="MsoNormal" style="line-height:normal"></p><p class="MsoNormal" style="line-height:normal"></p><div style="border:solid windowtext 1.0pt;padding:1.0pt 4.0pt 1.0pt 4.0pt"> <p class="MsoNormal" style="margin-left:28.35pt;text-indent:-28.35pt;line-height: normal;page-break-after:avoid;border:none;padding:0in"><b><span lang="EL">3.       ΚΑΤΑΛΟΓΟΣ ΕΚΔΟΧΩΝ</span></b></p> </div><p class="MsoNormal" style="line-height:normal;page-break-after:avoid"></p><p class="MsoNormal" style="line-height:normal;text-autospace:none"><span lang="EL" style="color:black;background:#BFBFBF">Κόνις:</span><span lang="EL"> σακχαρόζη, χλωριούχο νάτριο, ιστιδίνη, δίυδρο χλωριούχο ασβέστιο, πολυσορβικό 20, υδροξείδιο του νατρίου, υδροχλωρικό οξύ.</span></p><p class="MsoNormal" style="line-height:normal;text-autospace:none"></p><p class="MsoNormal" style="line-height:normal;text-autospace:none"><span lang="EL">Διαλύτης: ύδωρ για ενέσιμα</span></p><p class="MsoNormal" style="line-height:normal;text-autospace:none"></p><p class="MsoNormal" style="line-height:normal;text-autospace:none"></p><div style="border:solid windowtext 1.0pt;padding:1.0pt 4.0pt 1.0pt 4.0pt"> <p class="MsoNormal" style="margin-left:28.35pt;text-indent:-28.35pt;line-height: normal;page-break-after:avoid;border:none;padding:0in"><b><span lang="EL">4.       ΦΑΡΜΑΚΟΤΕΧΝΙΚΗ ΜΟΡΦΗ ΚΑΙ ΠΕΡΙΕΧΟΜΕΝΟ</span></b></p> </div><p class="MsoNormal" style="line-height:normal;page-break-after:avoid"></p><p class="MsoNormal" style="line-height:normal;page-break-after:avoid"><span lang="EL" style="color:black;background:#BFBFBF">Κόνις και διαλύτης για ενέσιμο διάλυμα</span></p><p class="MsoNormal" style="line-height:normal;page-break-after:avoid"></p><p class="MsoNormal" style="line-height:normal"><span lang="EL">Περιεχόμενο: 1 φιαλίδιο κόνεως, 3 ml διαλύτη σε προγεμισμένη σύριγγα, 1 ράβδος εμβόλου, 1 προσαρμογέας φιαλιδίου, 1 σετ έγχυσης, 2 ταμπόν με οινόπνευμα, 2 έμπλαστρα, 1 γάζα.</span></p><p class="MsoNormal" style="line-height:normal"></p><p class="MsoNormal" style="line-height:normal"></p><div style="border:solid windowtext 1.0pt;padding:1.0pt 4.0pt 1.0pt 4.0pt"> <p class="MsoNormal" style="margin-left:28.35pt;text-indent:-28.35pt;line-height: normal;page-break-after:avoid;border:none;padding:0in"><b><span lang="EL">5.       ΤΡΟΠΟΣ ΚΑΙ ΟΔΟΣ(ΟΙ) ΧΟΡΗΓΗΣΗΣ</span></b></p> </div><p class="MsoNormal" style="line-height:normal"></p><p class="MsoNormal" style="line-height:normal"><span lang="EL">Ενδοφλέβια χρήση, μετά την ανασύσταση.</span></p><p class="MsoNormal" style="line-height:normal"><span lang="EL">Διαβάστε το φύλλο οδηγιών χρήσης πριν από τη χρήση.</span></p><p class="MsoNormal" style="line-height:normal"></p><p class="MsoNormal" style="line-height:normal"><span lang="EL">Ένα βίντεο οδηγιών για την προετοιμασία και χορήγηση του ELOCTA είναι διαθέσιμο σαρώνοντας τον κωδικό QR με ένα smartphone </span><span lang="EL">ή μέσω του δικτυακού τόπου</span><span lang="EL">.</span></p><p class="MsoNormal" style="line-height:normal"></p><p class="MsoNormal" style="line-height:normal"><span lang="EL" style="color:black; background:#BFBFBF">Κωδικός QR που θα συμπεριληφθεί+</span><span lang="EN-GB"><a href="http://www.eloct-instructions.com/"><span lang="EL">http://www.elocta-instructions.com</span></a></span></p><p class="MsoNormal" style="line-height:normal"></p><p class="MsoNormal" style="line-height:normal"></p><div style="border:solid windowtext 1.0pt;padding:1.0pt 4.0pt 1.0pt 4.0pt"> <p class="MsoNormal" style="margin-left:28.35pt;text-indent:-28.35pt;line-height: normal;page-break-after:avoid;border:none;padding:0in"><b><span lang="EL">6.       ΕΙΔΙΚΗ ΠΡΟΕΙΔΟΠΟΙΗΣΗ ΣΥΜΦΩΝΑ ΜΕ ΤΗΝ ΟΠΟΙΑ ΤΟ ΦΑΡΜΑΚΕΥΤΙΚΟ ΠΡΟΪΟΝ ΠΡΕΠΕΙ ΝΑ ΦΥΛΑΣΣΕΤΑΙ ΣΕ ΘΕΣΗ ΤΗΝ ΟΠΟΙΑ ΔΕΝ ΒΛΕΠΟΥΝ ΚΑΙ ΔΕΝ ΠΡΟΣΕΓΓΙΖΟΥΝ ΤΑ ΠΑΙΔΙΑ</span></b></p> </div><p class="MsoNormal" style="line-height:normal;page-break-after:avoid"></p><p class="MsoNormal" style="line-height:normal"><span lang="EL">Να φυλάσσεται σε θέση, την οποία δεν βλέπουν και δεν προσεγγίζουν τα παιδιά.</span></p><p class="MsoNormal" style="line-height:normal"></p><p class="MsoNormal" style="line-height:normal"></p><div style="border:solid windowtext 1.0pt;padding:1.0pt 4.0pt 1.0pt 4.0pt"> <p class="MsoNormal" style="margin-left:28.35pt;text-indent:-28.35pt;line-height: normal;page-break-after:avoid;border:none;padding:0in"><b><span lang="EL">7.       ΑΛΛΗ(ΕΣ) ΕΙΔΙΚΗ(ΕΣ) ΠΡΟΕΙΔΟΠΟΙΗΣΗ(ΕΙΣ), ΕΑΝ ΕΙΝΑΙ ΑΠΑΡΑΙΤΗΤΗ(ΕΣ)</span></b></p> </div><p class="MsoNormal" style="line-height:normal"></p><p class="MsoNormal" style="line-height:normal"></p><div style="border:solid windowtext 1.0pt;padding:1.0pt 4.0pt 1.0pt 4.0pt"> <p class="MsoNormal" style="margin-left:28.35pt;text-indent:-28.35pt;line-height: normal;page-break-after:avoid;border:none;padding:0in"><b><span lang="EL">8.       ΗΜΕΡΟΜΗΝΙΑ ΛΗΞΗΣ</span></b></p> </div><p class="MsoNormal" style="line-height:normal"></p><p class="MsoNormal" style="line-height:normal"><span lang="EL">EXP</span></p><p class="MsoNormal" style="line-height:normal"></p><p class="MsoNormal" style="line-height:normal"><span lang="EL">Χρησιμοποιήστε εντός 6 ωρών μετά την ανασύσταση.</span></p><p class="MsoNormal" style="line-height:normal"></p><p class="MsoNormal" style="line-height:normal"></p><div style="border:solid windowtext 1.0pt;padding:1.0pt 4.0pt 1.0pt 4.0pt"> <p class="MsoNormal" style="margin-left:28.35pt;text-indent:-28.35pt;line-height: normal;page-break-after:avoid;border:none;padding:0in"><b><span lang="EL">9.       ΕΙΔΙΚΕΣ ΣΥΝΘΗΚΕΣ ΦΥΛΑΞΗΣ</span></b></p> </div><p class="MsoNormal" style="line-height:normal;page-break-after:avoid"></p><p class="MsoNormal" style="line-height:normal"><span lang="EL">Φυλάσσετε σε ψυγείο.</span></p><p class="MsoNormal" style="line-height:normal"><span lang="EL">Μην καταψύχετε.</span></p><p class="MsoNormal" style="line-height:normal"><span lang="EL">Φυλάσσετε το φιαλίδιο στο εξωτερικό κουτί για να προστατεύεται από το φως.</span></p><p class="MsoNormal" style="line-height:normal"><span lang="EL">Μπορεί να φυλάσσεται σε θερμοκρασία δωματίου (μέχρι 30°C) για μια μεμονωμένη περίοδο μέχρι 6 μήνες. Δεν πρέπει να επιστραφεί στο ψυγείο μετά τη φύλαξη σε θερμοκρασία δωματίου. Ημερομηνία που βγήκε από το ψυγείο:</span></p><p class="MsoNormal" style="line-height:normal"></p><p class="MsoNormal" style="margin-left:28.35pt;text-indent:-28.35pt;line-height: normal"></p><div style="border:solid windowtext 1.0pt;padding:1.0pt 4.0pt 1.0pt 4.0pt"> <p class="MsoNormal" style="margin-left:28.35pt;text-indent:-28.35pt;line-height: normal;page-break-after:avoid;border:none;padding:0in"><b><span lang="EL">10.     ΙΔΙΑΙΤΕΡΕΣ ΠΡΟΦΥΛΑΞΕΙΣ ΓΙΑ ΤΗΝ ΑΠΟΡΡΙΨΗ ΤΩΝ ΜΗ ΧΡΗΣΙΜΟΠΟΙΗΘΕΝΤΩΝ ΦΑΡΜΑΚΕΥΤΙΚΩΝ ΠΡΟΪΟΝΤΩΝ Ή ΤΩΝ ΥΠΟΛΕΙΜΜΑΤΩΝ ΠΟΥ ΠΡΟΕΡΧΟΝΤΑΙ ΑΠΟ ΑΥΤΑ, ΕΦΟΣΟΝ ΑΠΑΙΤΕΙΤΑΙ</span></b></p> </div><p class="MsoNormal" style="line-height:normal;page-break-after:avoid"></p><p class="MsoNormal" style="line-height:normal"></p><div style="border:solid windowtext 1.0pt;padding:1.0pt 4.0pt 1.0pt 4.0pt"> <p class="MsoNormal" style="margin-left:28.35pt;text-indent:-28.35pt;line-height: normal;page-break-after:avoid;border:none;padding:0in"><b><span lang="EL">11.     ΟΝΟΜΑ ΚΑΙ ΔΙΕΥΘΥΝΣΗ ΚΑΤΟΧΟΥ ΤΗΣ ΑΔΕΙΑΣ ΚΥΚΛΟΦΟΡΙΑΣ</span></b></p> </div><p class="MsoNormal" style="line-height:normal;page-break-after:avoid"></p><p class="MsoNormal" style="line-height:normal"><span lang="EL">Swedish Orphan Biovitrum AB (publ)</span></p><p class="MsoNormal" style="line-height:normal"><span lang="EL">SE-112 76 Stockholm</span></p><p class="MsoNormal" style="line-height:normal"><span lang="EL">Σουηδία</span></p><p class="MsoNormal" style="line-height:normal"></p><p class="MsoNormal" style="line-height:normal"></p><div style="border:solid windowtext 1.0pt;padding:1.0pt 4.0pt 1.0pt 4.0pt"> <p class="MsoNormal" style="margin-left:28.35pt;text-indent:-28.35pt;line-height: normal;page-break-after:avoid;border:none;padding:0in"><b><span lang="EL">12.     ΑΡΙΘΜΟΣ(ΟΙ) ΑΔΕΙΑΣ ΚΥΚΛΟΦΟΡΙΑΣ</span></b></p> </div><p class="MsoNormal" style="line-height:normal"></p><p class="MsoNormal" style="line-height:normal"><span lang="EL">EU/1/15/1046/002</span></p><p class="MsoNormal" style="line-height:normal"></p><p class="MsoNormal" style="line-height:normal"></p><div style="border:solid windowtext 1.0pt;padding:1.0pt 4.0pt 1.0pt 4.0pt"> <p class="MsoNormal" style="margin-left:28.35pt;text-indent:-28.35pt;line-height: normal;page-break-after:avoid;border:none;padding:0in"><b><span lang="EL">13.     ΑΡΙΘΜΟΣ ΠΑΡΤΙΔΑΣ</span></b></p> </div><p class="MsoNormal" style="line-height:normal"></p><p class="MsoNormal" style="line-height:normal"><span lang="EL">Lot</span></p><p class="MsoNormal" style="line-height:normal"></p><p class="MsoNormal" style="line-height:normal"></p><div style="border:solid windowtext 1.0pt;padding:1.0pt 4.0pt 1.0pt 4.0pt"> <p class="MsoNormal" style="margin-left:28.35pt;text-indent:-28.35pt;line-height: normal;page-break-after:avoid;border:none;padding:0in"><b><span lang="EL">14.     ΓΕΝΙΚΗ ΚΑΤΑΤΑΞΗ ΓΙΑ ΤΗ ΔΙΑΘΕΣΗ</span></b></p> </div><p class="MsoNormal" style="line-height:normal"></p><p class="MsoNormal" style="line-height:normal"></p><div style="border:solid windowtext 1.0pt;padding:1.0pt 4.0pt 1.0pt 4.0pt"> <p class="MsoNormal" style="margin-left:28.35pt;text-indent:-28.35pt;line-height: normal;page-break-after:avoid;border:none;padding:0in"><b><span lang="EL">15.     ΟΔΗΓΙΕΣ ΧΡΗΣΗΣ</span></b></p> </div><p class="MsoNormal" style="line-height:normal"></p><p class="MsoNormal" style="line-height:normal"></p><p class="MsoNormal" style="line-height:normal"></p><div style="border:solid windowtext 1.0pt;padding:1.0pt 4.0pt 1.0pt 4.0pt"> <p class="MsoNormal" style="margin-left:28.35pt;text-indent:-28.35pt;line-height: normal;page-break-after:avoid;border:none;padding:0in"><b><span lang="EL">16.     ΠΛΗΡΟΦΟΡΙΕΣ ΣΕ BRAILLE</span></b></p> </div><p class="MsoNormal" style="line-height:normal;page-break-after:avoid"></p><p class="MsoNormal" style="line-height:normal"><span lang="EL">ELOCTA 500</span></p><p class="MsoNormal" style="line-height:normal"></p><p class="MsoNormal" style="line-height:normal"></p><div style="border:solid windowtext 1.0pt;padding:1.0pt 4.0pt 1.0pt 4.0pt"> <p class="MsoNormal" style="margin-left:28.35pt;text-indent:-28.35pt;line-height: normal;page-break-after:avoid;border:none;padding:0in"><b><span lang="EL">17.     ΜΟΝΑΔΙΚΟΣ ΑΝΑΓΝΩΡΙΣΤΙΚΟΣ ΚΩΔΙΚΟΣ – ΔΙΣΔΙΑΣΤΑΤΟΣ ΓΡΑΜΜΩΤΟΣ ΚΩΔΙΚΑΣ (2D)</span></b></p> </div><p class="MsoNormal" style="line-height:normal;page-break-after:avoid"></p><p class="MsoNormal" style="line-height:normal"><span lang="EL" style="color:black; background:#D9D9D9">Δισδιάστατος γραμμωτός κώδικας (2D) που φέρει τον περιληφθέντα μοναδικό αναγνωριστικό κωδικό.</span></p><p class="MsoNormal" style="line-height:normal"></p><p class="MsoNormal" style="line-height:normal"></p><div style="border:solid windowtext 1.0pt;padding:1.0pt 4.0pt 1.0pt 4.0pt"> <p class="MsoNormal" style="margin-left:28.35pt;text-indent:-28.35pt;line-height: normal;page-break-after:avoid;border:none;padding:0in"><b><span lang="EL">18.     ΜΟΝΑΔΙΚΟΣ ΑΝΑΓΝΩΡΙΣΤΙΚΟΣ ΚΩΔΙΚΟΣ – ΔΕΔΟΜΕΝΑ ΑΝΑΓΝΩΣΙΜΑ ΑΠΟ ΤΟΝ ΑΝΘΡΩΠΟ</span></b></p> </div><p class="MsoNormal" style="line-height:normal;page-break-after:avoid"></p><p class="MsoNormal" style="line-height:normal;page-break-after:avoid"><span lang="EL">PC</span></p><p class="MsoNormal" style="line-height:normal;page-break-after:avoid"><span lang="EL">SN</span></p><p class="MsoNormal" style="line-height:normal"><span lang="EL">NN</span></p><p class="MsoNormal" style="line-height:normal"></p><span lang="EL" style='font-size:11.0pt;font-family:"Times New Roman",serif; color:black;background:#CCCCCC'><br clear="all" style="page-break-before:always"/> </span><br clear="all" style="page-break-before:always"/><p class="MsoNormal" style="line-height:normal"></p><div style="border:solid windowtext 1.0pt;padding:1.0pt 4.0pt 1.0pt 4.0pt"> <p class="MsoNormal" style="line-height:normal;border:none;padding:0in"><b><span lang="EL">ΕΛΑΧΙΣΤΕΣ ΕΝΔΕΙΞΕΙΣ ΠΟΥ ΠΡΕΠΕΙ ΝΑ ΑΝΑΓΡΑΦΟΝΤΑΙ ΣΤΙΣ ΜΙΚΡΕΣ ΣΤΟΙΧΕΙΩΔΕΙΣ ΣΥΣΚΕΥΑΣΙΕΣ</span></b></p> <p class="MsoNormal" style="line-height:normal;border:none;padding:0in"></p> <p class="MsoNormal" style="line-height:normal;border:none;padding:0in"><b><span lang="EL">ΕΠΙΣΗΜΑΝΣΗ ΦΙΑΛΙΔΙΟΥ</span></b></p> </div><p class="MsoNormal" style="line-height:normal"></p><p class="MsoNormal" style="line-height:normal"></p><div style="border:solid windowtext 1.0pt;padding:1.0pt 4.0pt 1.0pt 4.0pt"> <p class="MsoNormal" style="margin-left:28.35pt;text-indent:-28.35pt;line-height: normal;page-break-after:avoid;border:none;padding:0in"><b><span lang="EL">1.       ΟΝΟΜΑΣΙΑ ΤΟΥ ΦΑΡΜΑΚΕΥΤΙΚΟΥ ΠΡΟΪΟΝΤΟΣ ΚΑΙ ΟΔΟΣ(ΟΙ) ΧΟΡΗΓΗΣΗΣ</span></b></p> </div><p class="MsoNormal" style="margin-left:28.35pt;text-indent:-28.35pt;line-height: normal"></p><p class="MsoNormal" style="line-height:normal"><span lang="EL">ELOCTA 500 IU κόνις για ενέσιμο</span></p><p class="MsoNormal" style="line-height:normal"></p><p class="MsoNormal" style="line-height:normal"><span lang="EL">efmoroctocog alfa</span></p><p class="MsoNormal" style="line-height:normal"><span lang="EL">ανασυνδυασμένος παράγοντας πήξης VIII</span></p><p class="MsoNormal" style="line-height:normal"><span lang="EL">IV</span></p><p class="MsoNormal" style="line-height:normal"></p><p class="MsoNormal" style="line-height:normal"></p><div style="border:solid windowtext 1.0pt;padding:1.0pt 4.0pt 1.0pt 4.0pt"> <p class="MsoNormal" style="margin-left:28.35pt;text-indent:-28.35pt;line-height: normal;page-break-after:avoid;border:none;padding:0in"><b><span lang="EL">2.       ΤΡΟΠΟΣ ΧΟΡΗΓΗΣΗΣ</span></b></p> </div><p class="MsoNormal" style="line-height:normal"></p><p class="MsoNormal" style="line-height:normal"></p><div style="border:solid windowtext 1.0pt;padding:1.0pt 4.0pt 1.0pt 4.0pt"> <p class="MsoNormal" style="margin-left:28.35pt;text-indent:-28.35pt;line-height: normal;page-break-after:avoid;border:none;padding:0in"><b><span lang="EL">3.       ΗΜΕΡΟΜΗΝΙΑ ΛΗΞΗΣ</span></b></p> </div><p class="MsoNormal" style="line-height:normal"></p><p class="MsoNormal" style="line-height:normal"><span lang="EL">EXP</span></p><p class="MsoNormal" style="line-height:normal"></p><p class="MsoNormal" style="line-height:normal"></p><div style="border:solid windowtext 1.0pt;padding:1.0pt 4.0pt 1.0pt 4.0pt"> <p class="MsoNormal" style="margin-left:28.35pt;text-indent:-28.35pt;line-height: normal;page-break-after:avoid;border:none;padding:0in"><b><span lang="EL">4.       ΑΡΙΘΜΟΣ ΠΑΡΤΙΔΑΣ</span></b></p> </div><p class="MsoNormal" style="margin-right:5.65pt;line-height:normal"></p><p class="MsoNormal" style="margin-right:5.65pt;line-height:normal"><span lang="EL">Lot</span></p><p class="MsoNormal" style="margin-right:5.65pt;line-height:normal"></p><p class="MsoNormal" style="margin-right:5.65pt;line-height:normal"></p><div style="border:solid windowtext 1.0pt;padding:1.0pt 4.0pt 1.0pt 4.0pt"> <p class="MsoNormal" style="margin-left:28.35pt;text-indent:-28.35pt;line-height: normal;page-break-after:avoid;border:none;padding:0in"><b><span lang="EL">5.       ΠΕΡΙΕΧΟΜΕΝΟ ΚΑΤΑ ΒΑΡΟΣ, ΚΑΤ’ ΟΓΚΟ Ή ΚΑΤΑ ΜΟΝΑΔΑ</span></b></p> </div><p class="MsoNormal" style="margin-right:5.65pt;line-height:normal;page-break-after: avoid"></p><p class="MsoNormal" style="line-height:normal"><span lang="EL">500 IU</span></p><p class="MsoNormal" style="margin-right:5.65pt;line-height:normal"></p><p class="MsoNormal" style="margin-right:5.65pt;line-height:normal"></p><div style="border:solid windowtext 1.0pt;padding:1.0pt 4.0pt 1.0pt 4.0pt"> <p class="MsoNormal" style="margin-left:28.35pt;text-indent:-28.35pt;line-height: normal;page-break-after:avoid;border:none;padding:0in"><b><span lang="EL">6.       ΑΛΛΑ ΣΤΟΙΧΕΙΑ</span></b></p> </div><p class="MsoNormal" style="margin-right:5.65pt;line-height:normal"></p><span lang="EL" style='font-size:11.0pt;font-family:"Times New Roman",serif'><br clear="all" style="page-break-before:always"/> </span><br clear="all" style="page-break-before:always"/><div style="border:solid windowtext 1.0pt;padding:1.0pt 4.0pt 1.0pt 4.0pt"> <p class="MsoNormal" style="line-height:normal;border:none;padding:0in"><b><span lang="EL">ΕΝΔΕΙΞΕΙΣ ΠΟΥ ΠΡΕΠΕΙ ΝΑ ΑΝΑΓΡΑΦΟΝΤΑΙ ΣΤΗΝ ΕΞΩΤΕΡΙΚΗ ΣΥΣΚΕΥΑΣΙΑ</span></b></p> <p class="MsoNormal" style="margin-left:28.35pt;text-indent:-28.35pt;line-height: normal;border:none;padding:0in"></p> <p class="MsoNormal" style="line-height:normal;border:none;padding:0in"><b><span lang="EL">ΧΑΡΤΙΝΟ ΚΟΥΤΙ</span></b></p> </div><p class="MsoNormal" style="line-height:normal"></p><p class="MsoNormal" style="line-height:normal"></p><div style="border:solid windowtext 1.0pt;padding:1.0pt 4.0pt 1.0pt 4.0pt"> <p class="MsoNormal" style="margin-left:28.35pt;text-indent:-28.35pt;line-height: normal;page-break-after:avoid;border:none;padding:0in"><b><span lang="EL">1.       ΟΝΟΜΑΣΙΑ ΤΟΥ ΦΑΡΜΑΚΕΥΤΙΚΟΥ ΠΡΟΪΟΝΤΟΣ</span></b></p> </div><p class="MsoNormal" style="line-height:normal"></p><p class="MsoNormal" style="line-height:normal"><span lang="EL">ELOCTA 750 IU κόνις και διαλύτης για ενέσιμο διάλυμα</span></p><p class="MsoNormal" style="line-height:normal"></p><p class="MsoNormal" style="line-height:normal"><span lang="EL">efmoroctocog alfa </span></p><p class="MsoNormal" style="line-height:normal"><span lang="EL">(ανασυνδυασμένος παράγοντας πήξης VIII, πρωτεΐνη σύντηξης Fc)</span></p><p class="MsoNormal" style="line-height:normal"></p><p class="MsoNormal" style="line-height:normal"></p><div style="border:solid windowtext 1.0pt;padding:1.0pt 4.0pt 1.0pt 4.0pt"> <p class="MsoNormal" style="margin-left:28.35pt;text-indent:-28.35pt;line-height: normal;page-break-after:avoid;border:none;padding:0in"><b><span lang="EL">2.       ΣΥΝΘΕΣΗ ΣΕ ΔΡΑΣΤΙΚΗ(ΕΣ) ΟΥΣΙΑ(ΕΣ)</span></b></p> </div><p class="MsoNormal" style="line-height:normal"></p><p class="MsoNormal" style="line-height:normal"><span lang="EL">1 φιαλίδιο κόνεως περιέχει 7</span><span lang="EL">50 IU efmoroctocog alfa (περ. 250 IU/ml μετά την ανασύσταση)</span></p><p class="MsoNormal" style="line-height:normal"></p><p class="MsoNormal" style="line-height:normal"></p><div style="border:solid windowtext 1.0pt;padding:1.0pt 4.0pt 1.0pt 4.0pt"> <p class="MsoNormal" style="margin-left:28.35pt;text-indent:-28.35pt;line-height: normal;page-break-after:avoid;border:none;padding:0in"><b><span lang="EL">3.       ΚΑΤΑΛΟΓΟΣ ΕΚΔΟΧΩΝ</span></b></p> </div><p class="MsoNormal" style="line-height:normal;page-break-after:avoid"></p><p class="MsoNormal" style="line-height:normal;text-autospace:none"><span lang="EL" style="color:black;background:#BFBFBF">Κόνις:</span><span lang="EL"> σακχαρόζη, χλωριούχο νάτριο, ιστιδίνη, δίυδρο χλωριούχο ασβέστιο, πολυσορβικό 20, υδροξείδιο του νατρίου, υδροχλωρικό οξύ.</span></p><p class="MsoNormal" style="line-height:normal;text-autospace:none"></p><p class="MsoNormal" style="line-height:normal;text-autospace:none"><span lang="EL">Διαλύτης: ύδωρ για ενέσιμα</span></p><p class="MsoNormal" style="line-height:normal;text-autospace:none"></p><p class="MsoNormal" style="line-height:normal;text-autospace:none"></p><div style="border:solid windowtext 1.0pt;padding:1.0pt 4.0pt 1.0pt 4.0pt"> <p class="MsoNormal" style="margin-left:28.35pt;text-indent:-28.35pt;line-height: normal;page-break-after:avoid;border:none;padding:0in"><b><span lang="EL">4.       ΦΑΡΜΑΚΟΤΕΧΝΙΚΗ ΜΟΡΦΗ ΚΑΙ ΠΕΡΙΕΧΟΜΕΝΟ</span></b></p> </div><p class="MsoNormal" style="line-height:normal;page-break-after:avoid"></p><p class="MsoNormal" style="line-height:normal;page-break-after:avoid"><span lang="EL" style="color:black;background:#BFBFBF">Κόνις και διαλύτης για ενέσιμο διάλυμα</span></p><p class="MsoNormal" style="line-height:normal;page-break-after:avoid"></p><p class="MsoNormal" style="line-height:normal"><span lang="EL">Περιεχόμενο: 1 φιαλίδιο κόνεως, 3 ml διαλύτη σε προγεμισμένη σύριγγα, 1 ράβδος εμβόλου, 1 προσαρμογέας φιαλιδίου, 1 σετ έγχυσης, 2 ταμπόν με οινόπνευμα, 2 έμπλαστρα, 1 γάζα.</span></p><p class="MsoNormal" style="line-height:normal"></p><p class="MsoNormal" style="line-height:normal"></p><div style="border:solid windowtext 1.0pt;padding:1.0pt 4.0pt 1.0pt 4.0pt"> <p class="MsoNormal" style="margin-left:28.35pt;text-indent:-28.35pt;line-height: normal;page-break-after:avoid;border:none;padding:0in"><b><span lang="EL">5.       ΤΡΟΠΟΣ ΚΑΙ ΟΔΟΣ(ΟΙ) ΧΟΡΗΓΗΣΗΣ</span></b></p> </div><p class="MsoNormal" style="line-height:normal"></p><p class="MsoNormal" style="line-height:normal"><span lang="EL">Ενδοφλέβια χρήση, μετά την ανασύσταση.</span></p><p class="MsoNormal" style="line-height:normal"><span lang="EL">Διαβάστε το φύλλο οδηγιών χρήσης πριν από τη χρήση.</span></p><p class="MsoNormal" style="line-height:normal"></p><p class="MsoNormal" style="line-height:normal"><span lang="EL">Ένα βίντεο οδηγιών για την προετοιμασία και χορήγηση του ELOCTA είναι διαθέσιμο σαρώνοντας τον κωδικό QR με ένα smartphone </span><span lang="EL">ή μέσω του δικτυακού τόπου</span><span lang="EL">.</span></p><p class="MsoNormal" style="line-height:normal"></p><p class="MsoNormal" style="line-height:normal"><span lang="EL" style="color:black; background:#BFBFBF">Κωδικός QR που θα συμπεριληφθεί+</span><span lang="EN-GB"><a href="http://www.eloct-instructions.com/"><span lang="EL">http://www.elocta-instructions.com</span></a></span></p><p class="MsoNormal" style="line-height:normal"></p><p class="MsoNormal" style="line-height:normal"></p><div style="border:solid windowtext 1.0pt;padding:1.0pt 4.0pt 1.0pt 4.0pt"> <p class="MsoNormal" style="margin-left:28.35pt;text-indent:-28.35pt;line-height: normal;page-break-after:avoid;border:none;padding:0in"><b><span lang="EL">6.       ΕΙΔΙΚΗ ΠΡΟΕΙΔΟΠΟΙΗΣΗ ΣΥΜΦΩΝΑ ΜΕ ΤΗΝ ΟΠΟΙΑ ΤΟ ΦΑΡΜΑΚΕΥΤΙΚΟ ΠΡΟΪΟΝ ΠΡΕΠΕΙ ΝΑ ΦΥΛΑΣΣΕΤΑΙ ΣΕ ΘΕΣΗ ΤΗΝ ΟΠΟΙΑ ΔΕΝ ΒΛΕΠΟΥΝ ΚΑΙ ΔΕΝ ΠΡΟΣΕΓΓΙΖΟΥΝ ΤΑ ΠΑΙΔΙΑ</span></b></p> </div><p class="MsoNormal" style="line-height:normal;page-break-after:avoid"></p><p class="MsoNormal" style="line-height:normal"><span lang="EL">Να φυλάσσεται σε θέση, την οποία δεν βλέπουν και δεν προσεγγίζουν τα παιδιά.</span></p><p class="MsoNormal" style="line-height:normal"></p><p class="MsoNormal" style="line-height:normal"></p><div style="border:solid windowtext 1.0pt;padding:1.0pt 4.0pt 1.0pt 4.0pt"> <p class="MsoNormal" style="margin-left:28.35pt;text-indent:-28.35pt;line-height: normal;page-break-after:avoid;border:none;padding:0in"><b><span lang="EL">7.       ΑΛΛΗ(ΕΣ) ΕΙΔΙΚΗ(ΕΣ) ΠΡΟΕΙΔΟΠΟΙΗΣΗ(ΕΙΣ), ΕΑΝ ΕΙΝΑΙ ΑΠΑΡΑΙΤΗΤΗ(ΕΣ)</span></b></p> </div><p class="MsoNormal" style="line-height:normal"></p><p class="MsoNormal" style="line-height:normal"></p><div style="border:solid windowtext 1.0pt;padding:1.0pt 4.0pt 1.0pt 4.0pt"> <p class="MsoNormal" style="margin-left:28.35pt;text-indent:-28.35pt;line-height: normal;page-break-after:avoid;border:none;padding:0in"><b><span lang="EL">8.       ΗΜΕΡΟΜΗΝΙΑ ΛΗΞΗΣ</span></b></p> </div><p class="MsoNormal" style="line-height:normal"></p><p class="MsoNormal" style="line-height:normal"><span lang="EL">EXP</span></p><p class="MsoNormal" style="line-height:normal"></p><p class="MsoNormal" style="line-height:normal"><span lang="EL">Χρησιμοποιήστε εντός 6 ωρών μετά την ανασύσταση.</span></p><p class="MsoNormal" style="line-height:normal"></p><p class="MsoNormal" style="line-height:normal"></p><div style="border:solid windowtext 1.0pt;padding:1.0pt 4.0pt 1.0pt 4.0pt"> <p class="MsoNormal" style="margin-left:28.35pt;text-indent:-28.35pt;line-height: normal;page-break-after:avoid;border:none;padding:0in"><b><span lang="EL">9.       ΕΙΔΙΚΕΣ ΣΥΝΘΗΚΕΣ ΦΥΛΑΞΗΣ</span></b></p> </div><p class="MsoNormal" style="line-height:normal;page-break-after:avoid"></p><p class="MsoNormal" style="line-height:normal"><span lang="EL">Φυλάσσετε σε ψυγείο.</span></p><p class="MsoNormal" style="line-height:normal"><span lang="EL">Μην καταψύχετε.</span></p><p class="MsoNormal" style="line-height:normal"><span lang="EL">Φυλάσσετε το φιαλίδιο στο εξωτερικό κουτί για να προστατεύεται από το φως.</span></p><p class="MsoNormal" style="line-height:normal"><span lang="EL">Μπορεί να φυλάσσεται σε θερμοκρασία δωματίου (μέχρι 30°C) για μια μεμονωμένη περίοδο μέχρι 6 μήνες. Δεν πρέπει να επιστραφεί στο ψυγείο μετά τη φύλαξη σε θερμοκρασία δωματίου. Ημερομηνία που βγήκε από το ψυγείο:</span></p><p class="MsoNormal" style="line-height:normal"></p><p class="MsoNormal" style="margin-left:28.35pt;text-indent:-28.35pt;line-height: normal"></p><div style="border:solid windowtext 1.0pt;padding:1.0pt 4.0pt 1.0pt 4.0pt"> <p class="MsoNormal" style="margin-left:28.35pt;text-indent:-28.35pt;line-height: normal;page-break-after:avoid;border:none;padding:0in"><b><span lang="EL">10.     ΙΔΙΑΙΤΕΡΕΣ ΠΡΟΦΥΛΑΞΕΙΣ ΓΙΑ ΤΗΝ ΑΠΟΡΡΙΨΗ ΤΩΝ ΜΗ ΧΡΗΣΙΜΟΠΟΙΗΘΕΝΤΩΝ ΦΑΡΜΑΚΕΥΤΙΚΩΝ ΠΡΟΪΟΝΤΩΝ Ή ΤΩΝ ΥΠΟΛΕΙΜΜΑΤΩΝ ΠΟΥ ΠΡΟΕΡΧΟΝΤΑΙ ΑΠΟ ΑΥΤΑ, ΕΦΟΣΟΝ ΑΠΑΙΤΕΙΤΑΙ</span></b></p> </div><p class="MsoNormal" style="line-height:normal"></p><p class="MsoNormal" style="line-height:normal"></p><div style="border:solid windowtext 1.0pt;padding:1.0pt 4.0pt 1.0pt 4.0pt"> <p class="MsoNormal" style="margin-left:28.35pt;text-indent:-28.35pt;line-height: normal;page-break-after:avoid;border:none;padding:0in"><b><span lang="EL">11.     ΟΝΟΜΑ ΚΑΙ ΔΙΕΥΘΥΝΣΗ ΚΑΤΟΧΟΥ ΤΗΣ ΑΔΕΙΑΣ ΚΥΚΛΟΦΟΡΙΑΣ</span></b></p> </div><p class="MsoNormal" style="line-height:normal;page-break-after:avoid"></p><p class="MsoNormal" style="line-height:normal"><span lang="EL">Swedish Orphan Biovitrum AB (publ)</span></p><p class="MsoNormal" style="line-height:normal"><span lang="EL">SE-112 76 Stockholm</span></p><p class="MsoNormal" style="line-height:normal"><span lang="EL">Σουηδία</span></p><p class="MsoNormal" style="line-height:normal"></p><p class="MsoNormal" style="line-height:normal"></p><div style="border:solid windowtext 1.0pt;padding:1.0pt 4.0pt 1.0pt 4.0pt"> <p class="MsoNormal" style="margin-left:28.35pt;text-indent:-28.35pt;line-height: normal;page-break-after:avoid;border:none;padding:0in"><b><span lang="EL">12.     ΑΡΙΘΜΟΣ(ΟΙ) ΑΔΕΙΑΣ ΚΥΚΛΟΦΟΡΙΑΣ</span></b></p> </div><p class="MsoNormal" style="line-height:normal"></p><p class="MsoNormal" style="line-height:normal"><span lang="EL">EU/1/15/1046/003</span></p><p class="MsoNormal" style="line-height:normal"></p><p class="MsoNormal" style="line-height:normal"></p><div style="border:solid windowtext 1.0pt;padding:1.0pt 4.0pt 1.0pt 4.0pt"> <p class="MsoNormal" style="margin-left:28.35pt;text-indent:-28.35pt;line-height: normal;page-break-after:avoid;border:none;padding:0in"><b><span lang="EL">13.     ΑΡΙΘΜΟΣ ΠΑΡΤΙΔΑΣ</span></b></p> </div><p class="MsoNormal" style="line-height:normal"></p><p class="MsoNormal" style="line-height:normal"><span lang="EL">Lot</span></p><p class="MsoNormal" style="line-height:normal"></p><p class="MsoNormal" style="line-height:normal"></p><div style="border:solid windowtext 1.0pt;padding:1.0pt 4.0pt 1.0pt 4.0pt"> <p class="MsoNormal" style="margin-left:28.35pt;text-indent:-28.35pt;line-height: normal;page-break-after:avoid;border:none;padding:0in"><b><span lang="EL">14.     ΓΕΝΙΚΗ ΚΑΤΑΤΑΞΗ ΓΙΑ ΤΗ ΔΙΑΘΕΣΗ</span></b></p> </div><p class="MsoNormal" style="line-height:normal"></p><p class="MsoNormal" style="line-height:normal"></p><div style="border:solid windowtext 1.0pt;padding:1.0pt 4.0pt 1.0pt 4.0pt"> <p class="MsoNormal" style="margin-left:28.35pt;text-indent:-28.35pt;line-height: normal;page-break-after:avoid;border:none;padding:0in"><b><span lang="EL">15.     ΟΔΗΓΙΕΣ ΧΡΗΣΗΣ</span></b></p> </div><p class="MsoNormal" style="line-height:normal"></p><p class="MsoNormal" style="line-height:normal"></p><p class="MsoNormal" style="line-height:normal"></p><div style="border:solid windowtext 1.0pt;padding:1.0pt 4.0pt 1.0pt 4.0pt"> <p class="MsoNormal" style="margin-left:28.35pt;text-indent:-28.35pt;line-height: normal;page-break-after:avoid;border:none;padding:0in"><b><span lang="EL">16.     ΠΛΗΡΟΦΟΡΙΕΣ ΣΕ BRAILLE</span></b></p> </div><p class="MsoNormal" style="line-height:normal;page-break-after:avoid"></p><p class="MsoNormal" style="line-height:normal"><span lang="EL">ELOCTA 750</span></p><p class="MsoNormal" style="line-height:normal"></p><p class="MsoNormal" style="line-height:normal"></p><div style="border:solid windowtext 1.0pt;padding:1.0pt 4.0pt 1.0pt 4.0pt"> <p class="MsoNormal" style="margin-left:28.35pt;text-indent:-28.35pt;line-height: normal;page-break-after:avoid;border:none;padding:0in"><b><span lang="EL">17.     ΜΟΝΑΔΙΚΟΣ ΑΝΑΓΝΩΡΙΣΤΙΚΟΣ ΚΩΔΙΚΟΣ – ΔΙΣΔΙΑΣΤΑΤΟΣ ΓΡΑΜΜΩΤΟΣ ΚΩΔΙΚΑΣ (2D)</span></b></p> </div><p class="MsoNormal" style="line-height:normal;page-break-after:avoid"></p><p class="MsoNormal" style="line-height:normal"><span lang="EL" style="color:black; background:#D9D9D9">Δισδιάστατος γραμμωτός κώδικας (2D) που φέρει τον περιληφθέντα μοναδικό αναγνωριστικό κωδικό.</span></p><p class="MsoNormal" style="line-height:normal"></p><p class="MsoNormal" style="line-height:normal"></p><div style="border:solid windowtext 1.0pt;padding:1.0pt 4.0pt 1.0pt 4.0pt"> <p class="MsoNormal" style="margin-left:28.35pt;text-indent:-28.35pt;line-height: normal;page-break-after:avoid;border:none;padding:0in"><b><span lang="EL">18.     ΜΟΝΑΔΙΚΟΣ ΑΝΑΓΝΩΡΙΣΤΙΚΟΣ ΚΩΔΙΚΟΣ – ΔΕΔΟΜΕΝΑ ΑΝΑΓΝΩΣΙΜΑ ΑΠΟ ΤΟΝ ΑΝΘΡΩΠΟ</span></b></p> </div><p class="MsoNormal" style="line-height:normal;page-break-after:avoid"></p><p class="MsoNormal" style="line-height:normal;page-break-after:avoid"><span lang="EL">PC</span></p><p class="MsoNormal" style="line-height:normal;page-break-after:avoid"><span lang="EL">SN</span></p><p class="MsoNormal" style="line-height:normal"><span lang="EL">NN</span></p><p class="MsoNormal" style="line-height:normal"></p><span lang="EL" style='font-size:11.0pt;font-family:"Times New Roman",serif; color:black;background:#CCCCCC'><br clear="all" style="page-break-before:always"/> </span><br clear="all" style="page-break-before:always"/><p class="MsoNormal" style="line-height:normal"></p><div style="border:solid windowtext 1.0pt;padding:1.0pt 4.0pt 1.0pt 4.0pt"> <p class="MsoNormal" style="line-height:normal;border:none;padding:0in"><b><span lang="EL">ΕΛΑΧΙΣΤΕΣ ΕΝΔΕΙΞΕΙΣ ΠΟΥ ΠΡΕΠΕΙ ΝΑ ΑΝΑΓΡΑΦΟΝΤΑΙ ΣΤΙΣ ΜΙΚΡΕΣ ΣΤΟΙΧΕΙΩΔΕΙΣ ΣΥΣΚΕΥΑΣΙΕΣ</span></b></p> <p class="MsoNormal" style="line-height:normal;border:none;padding:0in"></p> <p class="MsoNormal" style="line-height:normal;border:none;padding:0in"><b><span lang="EL">ΕΠΙΣΗΜΑΝΣΗ ΦΙΑΛΙΔΙΟΥ</span></b></p> </div><p class="MsoNormal" style="line-height:normal"></p><p class="MsoNormal" style="line-height:normal"></p><div style="border:solid windowtext 1.0pt;padding:1.0pt 4.0pt 1.0pt 4.0pt"> <p class="MsoNormal" style="margin-left:28.35pt;text-indent:-28.35pt;line-height: normal;page-break-after:avoid;border:none;padding:0in"><b><span lang="EL">1.       ΟΝΟΜΑΣΙΑ ΤΟΥ ΦΑΡΜΑΚΕΥΤΙΚΟΥ ΠΡΟΪΟΝΤΟΣ ΚΑΙ ΟΔΟΣ(ΟΙ) ΧΟΡΗΓΗΣΗΣ</span></b></p> </div><p class="MsoNormal" style="margin-left:28.35pt;text-indent:-28.35pt;line-height: normal"></p><p class="MsoNormal" style="line-height:normal"><span lang="EL">ELOCTA 750 IU κόνις για ενέσιμο</span></p><p class="MsoNormal" style="line-height:normal"></p><p class="MsoNormal" style="line-height:normal"><span lang="EL">efmoroctocog alfa</span></p><p class="MsoNormal" style="line-height:normal"><span lang="EL">ανασυνδυασμένος παράγοντας πήξης VIII</span></p><p class="MsoNormal" style="line-height:normal"><span lang="EL">IV</span></p><p class="MsoNormal" style="line-height:normal"></p><p class="MsoNormal" style="line-height:normal"></p><div style="border:solid windowtext 1.0pt;padding:1.0pt 4.0pt 1.0pt 4.0pt"> <p class="MsoNormal" style="margin-left:28.35pt;text-indent:-28.35pt;line-height: normal;page-break-after:avoid;border:none;padding:0in"><b><span lang="EL">2.       ΤΡΟΠΟΣ ΧΟΡΗΓΗΣΗΣ</span></b></p> </div><p class="MsoNormal" style="line-height:normal"></p><p class="MsoNormal" style="line-height:normal"></p><div style="border:solid windowtext 1.0pt;padding:1.0pt 4.0pt 1.0pt 4.0pt"> <p class="MsoNormal" style="margin-left:28.35pt;text-indent:-28.35pt;line-height: normal;page-break-after:avoid;border:none;padding:0in"><b><span lang="EL">3.       ΗΜΕΡΟΜΗΝΙΑ ΛΗΞΗΣ</span></b></p> </div><p class="MsoNormal" style="line-height:normal"></p><p class="MsoNormal" style="line-height:normal"><span lang="EL">EXP</span></p><p class="MsoNormal" style="line-height:normal"></p><p class="MsoNormal" style="line-height:normal"></p><div style="border:solid windowtext 1.0pt;padding:1.0pt 4.0pt 1.0pt 4.0pt"> <p class="MsoNormal" style="margin-left:28.35pt;text-indent:-28.35pt;line-height: normal;page-break-after:avoid;border:none;padding:0in"><b><span lang="EL">4.       ΑΡΙΘΜΟΣ ΠΑΡΤΙΔΑΣ</span></b></p> </div><p class="MsoNormal" style="margin-right:5.65pt;line-height:normal"></p><p class="MsoNormal" style="margin-right:5.65pt;line-height:normal"><span lang="EL">Lot</span></p><p class="MsoNormal" style="margin-right:5.65pt;line-height:normal"></p><p class="MsoNormal" style="margin-right:5.65pt;line-height:normal"></p><div style="border:solid windowtext 1.0pt;padding:1.0pt 4.0pt 1.0pt 4.0pt"> <p class="MsoNormal" style="margin-left:28.35pt;text-indent:-28.35pt;line-height: normal;page-break-after:avoid;border:none;padding:0in"><b><span lang="EL">5.       ΠΕΡΙΕΧΟΜΕΝΟ ΚΑΤΑ ΒΑΡΟΣ, ΚΑΤ’ ΟΓΚΟ Ή ΚΑΤΑ ΜΟΝΑΔΑ</span></b></p> </div><p class="MsoNormal" style="margin-right:5.65pt;line-height:normal;page-break-after: avoid"></p><p class="MsoNormal" style="line-height:normal"><span lang="EL">750 IU</span></p><p class="MsoNormal" style="margin-right:5.65pt;line-height:normal"></p><p class="MsoNormal" style="margin-right:5.65pt;line-height:normal"></p><div style="border:solid windowtext 1.0pt;padding:1.0pt 4.0pt 1.0pt 4.0pt"> <p class="MsoNormal" style="margin-left:28.35pt;text-indent:-28.35pt;line-height: normal;page-break-after:avoid;border:none;padding:0in"><b><span lang="EL">6.       ΑΛΛΑ ΣΤΟΙΧΕΙΑ</span></b></p> </div><p class="MsoNormal" style="margin-right:5.65pt;line-height:normal"></p><span lang="EL" style='font-size:11.0pt;font-family:"Times New Roman",serif'><br clear="all" style="page-break-before:always"/> </span><br clear="all" style="page-break-before:always"/><div style="border:solid windowtext 1.0pt;padding:1.0pt 4.0pt 1.0pt 4.0pt"> <p class="MsoNormal" style="line-height:normal;border:none;padding:0in"><b><span lang="EL">ΕΝΔΕΙΞΕΙΣ ΠΟΥ ΠΡΕΠΕΙ ΝΑ ΑΝΑΓΡΑΦΟΝΤΑΙ ΣΤΗΝ ΕΞΩΤΕΡΙΚΗ ΣΥΣΚΕΥΑΣΙΑ</span></b></p> <p class="MsoNormal" style="margin-left:28.35pt;text-indent:-28.35pt;line-height: normal;border:none;padding:0in"></p> <p class="MsoNormal" style="line-height:normal;border:none;padding:0in"><b><span lang="EL">ΧΑΡΤΙΝΟ ΚΟΥΤΙ</span></b></p> </div><p class="MsoNormal" style="line-height:normal"></p><p class="MsoNormal" style="line-height:normal"></p><div style="border:solid windowtext 1.0pt;padding:1.0pt 4.0pt 1.0pt 4.0pt"> <p class="MsoNormal" style="margin-left:28.35pt;text-indent:-28.35pt;line-height: normal;page-break-after:avoid;border:none;padding:0in"><b><span lang="EL">1.       ΟΝΟΜΑΣΙΑ ΤΟΥ ΦΑΡΜΑΚΕΥΤΙΚΟΥ ΠΡΟΪΟΝΤΟΣ</span></b></p> </div><p class="MsoNormal" style="line-height:normal"></p><p class="MsoNormal" style="line-height:normal"><span lang="EL">ELOCTA 1000 IU κόνις και διαλύτης για ενέσιμο διάλυμα</span></p><p class="MsoNormal" style="line-height:normal"></p><p class="MsoNormal" style="line-height:normal"><span lang="EL">efmoroctocog alfa </span></p><p class="MsoNormal" style="line-height:normal"><span lang="EL">(ανασυνδυασμένος παράγοντας πήξης VIII, πρωτεΐνη σύντηξης Fc)</span></p><p class="MsoNormal" style="line-height:normal"></p><p class="MsoNormal" style="line-height:normal"></p><div style="border:solid windowtext 1.0pt;padding:1.0pt 4.0pt 1.0pt 4.0pt"> <p class="MsoNormal" style="margin-left:28.35pt;text-indent:-28.35pt;line-height: normal;page-break-after:avoid;border:none;padding:0in"><b><span lang="EL">2.       ΣΥΝΘΕΣΗ ΣΕ ΔΡΑΣΤΙΚΗ(ΕΣ) ΟΥΣΙΑ(ΕΣ)</span></b></p> </div><p class="MsoNormal" style="line-height:normal"></p><p class="MsoNormal" style="line-height:normal"><span lang="EL">1 φιαλίδιο κόνεως περιέχει </span><span lang="EL">1000 IU efmoroctocog alfa (περ. 333 IU/ml μετά την ανασύσταση)</span></p><p class="MsoNormal" style="line-height:normal"></p><p class="MsoNormal" style="line-height:normal"></p><div style="border:solid windowtext 1.0pt;padding:1.0pt 4.0pt 1.0pt 4.0pt"> <p class="MsoNormal" style="margin-left:28.35pt;text-indent:-28.35pt;line-height: normal;page-break-after:avoid;border:none;padding:0in"><b><span lang="EL">3.       ΚΑΤΑΛΟΓΟΣ ΕΚΔΟΧΩΝ</span></b></p> </div><p class="MsoNormal" style="line-height:normal;page-break-after:avoid"></p><p class="MsoNormal" style="line-height:normal;text-autospace:none"><span lang="EL" style="color:black;background:#BFBFBF">Κόνις:</span><span lang="EL"> σακχαρόζη, χλωριούχο νάτριο, ιστιδίνη, δίυδρο χλωριούχο ασβέστιο, πολυσορβικό 20, υδροξείδιο του νατρίου, υδροχλωρικό οξύ.</span></p><p class="MsoNormal" style="line-height:normal;text-autospace:none"></p><p class="MsoNormal" style="line-height:normal;text-autospace:none"><span lang="EL">Διαλύτης: ύδωρ για ενέσιμα</span></p><p class="MsoNormal" style="line-height:normal;text-autospace:none"></p><p class="MsoNormal" style="line-height:normal;text-autospace:none"></p><div style="border:solid windowtext 1.0pt;padding:1.0pt 4.0pt 1.0pt 4.0pt"> <p class="MsoNormal" style="margin-left:28.35pt;text-indent:-28.35pt;line-height: normal;page-break-after:avoid;border:none;padding:0in"><b><span lang="EL">4.       ΦΑΡΜΑΚΟΤΕΧΝΙΚΗ ΜΟΡΦΗ ΚΑΙ ΠΕΡΙΕΧΟΜΕΝΟ</span></b></p> </div><p class="MsoNormal" style="line-height:normal;page-break-after:avoid"></p><p class="MsoNormal" style="line-height:normal;page-break-after:avoid"><span lang="EL" style="color:black;background:#BFBFBF">Κόνις και διαλύτης για ενέσιμο διάλυμα</span></p><p class="MsoNormal" style="line-height:normal;page-break-after:avoid"></p><p class="MsoNormal" style="line-height:normal"><span lang="EL">Περιεχόμενο: 1 φιαλίδιο κόνεως, 3 ml διαλύτη σε προγεμισμένη σύριγγα, 1 ράβδος εμβόλου, 1 προσαρμογέας φιαλιδίου, 1 σετ έγχυσης, 2 ταμπόν με οινόπνευμα, 2 έμπλαστρα, 1 γάζα.</span></p><p class="MsoNormal" style="line-height:normal"></p><p class="MsoNormal" style="line-height:normal"></p><div style="border:solid windowtext 1.0pt;padding:1.0pt 4.0pt 1.0pt 4.0pt"> <p class="MsoNormal" style="margin-left:28.35pt;text-indent:-28.35pt;line-height: normal;page-break-after:avoid;border:none;padding:0in"><b><span lang="EL">5.       ΤΡΟΠΟΣ ΚΑΙ ΟΔΟΣ(ΟΙ) ΧΟΡΗΓΗΣΗΣ</span></b></p> </div><p class="MsoNormal" style="line-height:normal"></p><p class="MsoNormal" style="line-height:normal"><span lang="EL">Ενδοφλέβια χρήση, μετά την ανασύσταση.</span></p><p class="MsoNormal" style="line-height:normal"><span lang="EL">Διαβάστε το φύλλο οδηγιών χρήσης πριν από τη χρήση.</span></p><p class="MsoNormal" style="line-height:normal"></p><p class="MsoNormal" style="line-height:normal"><span lang="EL">Ένα βίντεο οδηγιών για την προετοιμασία και χορήγηση του ELOCTA είναι διαθέσιμο σαρώνοντας τον κωδικό QR με ένα smartphone </span><span lang="EL">ή μέσω του δικτυακού τόπου</span><span lang="EL">.</span></p><p class="MsoNormal" style="line-height:normal"></p><p class="MsoNormal" style="line-height:normal"><span lang="EL" style="color:black; background:#BFBFBF">Κωδικός QR που θα συμπεριληφθεί+</span><span lang="EN-GB"><a href="http://www.eloct-instructions.com/"><span lang="EL">http://www.elocta-instructions.com</span></a></span></p><p class="MsoNormal" style="line-height:normal"></p><p class="MsoNormal" style="line-height:normal"></p><div style="border:solid windowtext 1.0pt;padding:1.0pt 4.0pt 1.0pt 4.0pt"> <p class="MsoNormal" style="margin-left:28.35pt;text-indent:-28.35pt;line-height: normal;page-break-after:avoid;border:none;padding:0in"><b><span lang="EL">6.       ΕΙΔΙΚΗ ΠΡΟΕΙΔΟΠΟΙΗΣΗ ΣΥΜΦΩΝΑ ΜΕ ΤΗΝ ΟΠΟΙΑ ΤΟ ΦΑΡΜΑΚΕΥΤΙΚΟ ΠΡΟΪΟΝ ΠΡΕΠΕΙ ΝΑ ΦΥΛΑΣΣΕΤΑΙ ΣΕ ΘΕΣΗ ΤΗΝ ΟΠΟΙΑ ΔΕΝ ΒΛΕΠΟΥΝ ΚΑΙ ΔΕΝ ΠΡΟΣΕΓΓΙΖΟΥΝ ΤΑ ΠΑΙΔΙΑ</span></b></p> </div><p class="MsoNormal" style="line-height:normal;page-break-after:avoid"></p><p class="MsoNormal" style="line-height:normal"><span lang="EL">Να φυλάσσεται σε θέση, την οποία δεν βλέπουν και δεν προσεγγίζουν τα παιδιά.</span></p><p class="MsoNormal" style="line-height:normal"></p><p class="MsoNormal" style="line-height:normal"></p><div style="border:solid windowtext 1.0pt;padding:1.0pt 4.0pt 1.0pt 4.0pt"> <p class="MsoNormal" style="margin-left:28.35pt;text-indent:-28.35pt;line-height: normal;page-break-after:avoid;border:none;padding:0in"><b><span lang="EL">7.       ΑΛΛΗ(ΕΣ) ΕΙΔΙΚΗ(ΕΣ) ΠΡΟΕΙΔΟΠΟΙΗΣΗ(ΕΙΣ), ΕΑΝ ΕΙΝΑΙ ΑΠΑΡΑΙΤΗΤΗ(ΕΣ)</span></b></p> </div><p class="MsoNormal" style="line-height:normal"></p><p class="MsoNormal" style="line-height:normal"></p><div style="border:solid windowtext 1.0pt;padding:1.0pt 4.0pt 1.0pt 4.0pt"> <p class="MsoNormal" style="margin-left:28.35pt;text-indent:-28.35pt;line-height: normal;page-break-after:avoid;border:none;padding:0in"><b><span lang="EL">8.       ΗΜΕΡΟΜΗΝΙΑ ΛΗΞΗΣ</span></b></p> </div><p class="MsoNormal" style="line-height:normal"></p><p class="MsoNormal" style="line-height:normal"><span lang="EL">EXP</span></p><p class="MsoNormal" style="line-height:normal"></p><p class="MsoNormal" style="line-height:normal"><span lang="EL">Χρησιμοποιήστε εντός 6 ωρών μετά την ανασύσταση.</span></p><p class="MsoNormal" style="line-height:normal"></p><p class="MsoNormal" style="line-height:normal"></p><div style="border:solid windowtext 1.0pt;padding:1.0pt 4.0pt 1.0pt 4.0pt"> <p class="MsoNormal" style="margin-left:28.35pt;text-indent:-28.35pt;line-height: normal;page-break-after:avoid;border:none;padding:0in"><b><span lang="EL">9.       ΕΙΔΙΚΕΣ ΣΥΝΘΗΚΕΣ ΦΥΛΑΞΗΣ</span></b></p> </div><p class="MsoNormal" style="line-height:normal;page-break-after:avoid"></p><p class="MsoNormal" style="line-height:normal"><span lang="EL">Φυλάσσετε σε ψυγείο.</span></p><p class="MsoNormal" style="line-height:normal"><span lang="EL">Μην καταψύχετε.</span></p><p class="MsoNormal" style="line-height:normal"><span lang="EL">Φυλάσσετε το φιαλίδιο στο εξωτερικό κουτί για να προστατεύεται από το φως.</span></p><p class="MsoNormal" style="line-height:normal"><span lang="EL">Μπορεί να φυλάσσεται σε θερμοκρασία δωματίου (μέχρι 30°C) για μια μεμονωμένη περίοδο μέχρι 6 μήνες. Δεν πρέπει να επιστραφεί στο ψυγείο μετά τη φύλαξη σε θερμοκρασία δωματίου. Ημερομηνία που βγήκε από το ψυγείο:</span></p><p class="MsoNormal" style="line-height:normal"></p><p class="MsoNormal" style="margin-left:28.35pt;text-indent:-28.35pt;line-height: normal"></p><div style="border:solid windowtext 1.0pt;padding:1.0pt 4.0pt 1.0pt 4.0pt"> <p class="MsoNormal" style="margin-left:28.35pt;text-indent:-28.35pt;line-height: normal;page-break-after:avoid;border:none;padding:0in"><b><span lang="EL">10.     ΙΔΙΑΙΤΕΡΕΣ ΠΡΟΦΥΛΑΞΕΙΣ ΓΙΑ ΤΗΝ ΑΠΟΡΡΙΨΗ ΤΩΝ ΜΗ ΧΡΗΣΙΜΟΠΟΙΗΘΕΝΤΩΝ ΦΑΡΜΑΚΕΥΤΙΚΩΝ ΠΡΟΪΟΝΤΩΝ Ή ΤΩΝ ΥΠΟΛΕΙΜΜΑΤΩΝ ΠΟΥ ΠΡΟΕΡΧΟΝΤΑΙ ΑΠΟ ΑΥΤΑ, ΕΦΟΣΟΝ ΑΠΑΙΤΕΙΤΑΙ</span></b></p> </div><p class="MsoNormal" style="line-height:normal;page-break-after:avoid"></p><p class="MsoNormal" style="line-height:normal"></p><div style="border:solid windowtext 1.0pt;padding:1.0pt 4.0pt 1.0pt 4.0pt"> <p class="MsoNormal" style="margin-left:28.35pt;text-indent:-28.35pt;line-height: normal;page-break-after:avoid;border:none;padding:0in"><b><span lang="EL">11.     ΟΝΟΜΑ ΚΑΙ ΔΙΕΥΘΥΝΣΗ ΚΑΤΟΧΟΥ ΤΗΣ ΑΔΕΙΑΣ ΚΥΚΛΟΦΟΡΙΑΣ</span></b></p> </div><p class="MsoNormal" style="line-height:normal;page-break-after:avoid"></p><p class="MsoNormal" style="line-height:normal"><span lang="EL">Swedish Orphan Biovitrum AB (publ)</span></p><p class="MsoNormal" style="line-height:normal"><span lang="EL">SE-112 76 Stockholm</span></p><p class="MsoNormal" style="line-height:normal"><span lang="EL">Σουηδία</span></p><p class="MsoNormal" style="line-height:normal"></p><p class="MsoNormal" style="line-height:normal"></p><div style="border:solid windowtext 1.0pt;padding:1.0pt 4.0pt 1.0pt 4.0pt"> <p class="MsoNormal" style="margin-left:28.35pt;text-indent:-28.35pt;line-height: normal;page-break-after:avoid;border:none;padding:0in"><b><span lang="EL">12.     ΑΡΙΘΜΟΣ(ΟΙ) ΑΔΕΙΑΣ ΚΥΚΛΟΦΟΡΙΑΣ</span></b></p> </div><p class="MsoNormal" style="line-height:normal"></p><p class="MsoNormal" style="line-height:normal"><span lang="EL">EU/1/15/1046/004</span></p><p class="MsoNormal" style="line-height:normal"></p><p class="MsoNormal" style="line-height:normal"></p><div style="border:solid windowtext 1.0pt;padding:1.0pt 4.0pt 1.0pt 4.0pt"> <p class="MsoNormal" style="margin-left:28.35pt;text-indent:-28.35pt;line-height: normal;page-break-after:avoid;border:none;padding:0in"><b><span lang="EL">13.     ΑΡΙΘΜΟΣ ΠΑΡΤΙΔΑΣ</span></b></p> </div><p class="MsoNormal" style="line-height:normal"></p><p class="MsoNormal" style="line-height:normal"><span lang="EL">Lot</span></p><p class="MsoNormal" style="line-height:normal"></p><p class="MsoNormal" style="line-height:normal"></p><div style="border:solid windowtext 1.0pt;padding:1.0pt 4.0pt 1.0pt 4.0pt"> <p class="MsoNormal" style="margin-left:28.35pt;text-indent:-28.35pt;line-height: normal;page-break-after:avoid;border:none;padding:0in"><b><span lang="EL">14.     ΓΕΝΙΚΗ ΚΑΤΑΤΑΞΗ ΓΙΑ ΤΗ ΔΙΑΘΕΣΗ</span></b></p> </div><p class="MsoNormal" style="line-height:normal"></p><p class="MsoNormal" style="line-height:normal"></p><div style="border:solid windowtext 1.0pt;padding:1.0pt 4.0pt 1.0pt 4.0pt"> <p class="MsoNormal" style="margin-left:28.35pt;text-indent:-28.35pt;line-height: normal;page-break-after:avoid;border:none;padding:0in"><b><span lang="EL">15.     ΟΔΗΓΙΕΣ ΧΡΗΣΗΣ</span></b></p> </div><p class="MsoNormal" style="line-height:normal"></p><p class="MsoNormal" style="line-height:normal"></p><p class="MsoNormal" style="line-height:normal"></p><div style="border:solid windowtext 1.0pt;padding:1.0pt 4.0pt 1.0pt 4.0pt"> <p class="MsoNormal" style="margin-left:28.35pt;text-indent:-28.35pt;line-height: normal;page-break-after:avoid;border:none;padding:0in"><b><span lang="EL">16.     ΠΛΗΡΟΦΟΡΙΕΣ ΣΕ BRAILLE</span></b></p> </div><p class="MsoNormal" style="line-height:normal;page-break-after:avoid"></p><p class="MsoNormal" style="line-height:normal"><span lang="EL">ELOCTA 1000</span></p><p class="MsoNormal" style="line-height:normal"></p><p class="MsoNormal" style="line-height:normal"></p><div style="border:solid windowtext 1.0pt;padding:1.0pt 4.0pt 1.0pt 4.0pt"> <p class="MsoNormal" style="margin-left:28.35pt;text-indent:-28.35pt;line-height: normal;page-break-after:avoid;border:none;padding:0in"><b><span lang="EL">17.     ΜΟΝΑΔΙΚΟΣ ΑΝΑΓΝΩΡΙΣΤΙΚΟΣ ΚΩΔΙΚΟΣ – ΔΙΣΔΙΑΣΤΑΤΟΣ ΓΡΑΜΜΩΤΟΣ ΚΩΔΙΚΑΣ (2D)</span></b></p> </div><p class="MsoNormal" style="line-height:normal;page-break-after:avoid"></p><p class="MsoNormal" style="line-height:normal"><span lang="EL" style="color:black; background:#D9D9D9">Δισδιάστατος γραμμωτός κώδικας (2D) που φέρει τον περιληφθέντα μοναδικό αναγνωριστικό κωδικό.</span></p><p class="MsoNormal" style="line-height:normal"></p><p class="MsoNormal" style="line-height:normal"></p><div style="border:solid windowtext 1.0pt;padding:1.0pt 4.0pt 1.0pt 4.0pt"> <p class="MsoNormal" style="margin-left:28.35pt;text-indent:-28.35pt;line-height: normal;page-break-after:avoid;border:none;padding:0in"><b><span lang="EL">18.     ΜΟΝΑΔΙΚΟΣ ΑΝΑΓΝΩΡΙΣΤΙΚΟΣ ΚΩΔΙΚΟΣ – ΔΕΔΟΜΕΝΑ ΑΝΑΓΝΩΣΙΜΑ ΑΠΟ ΤΟΝ ΑΝΘΡΩΠΟ</span></b></p> </div><p class="MsoNormal" style="line-height:normal;page-break-after:avoid"></p><p class="MsoNormal" style="line-height:normal;page-break-after:avoid"><span lang="EL">PC</span></p><p class="MsoNormal" style="line-height:normal;page-break-after:avoid"><span lang="EL">SN</span></p><p class="MsoNormal" style="line-height:normal"><span lang="EL">NN</span></p><p class="MsoNormal" style="line-height:normal"></p><span lang="EL" style='font-size:11.0pt;font-family:"Times New Roman",serif; color:black;background:#CCCCCC'><br clear="all" style="page-break-before:always"/> </span><br clear="all" style="page-break-before:always"/><p class="MsoNormal" style="line-height:normal"></p><div style="border:solid windowtext 1.0pt;padding:1.0pt 4.0pt 1.0pt 4.0pt"> <p class="MsoNormal" style="line-height:normal;border:none;padding:0in"><b><span lang="EL">ΕΛΑΧΙΣΤΕΣ ΕΝΔΕΙΞΕΙΣ ΠΟΥ ΠΡΕΠΕΙ ΝΑ ΑΝΑΓΡΑΦΟΝΤΑΙ ΣΤΙΣ ΜΙΚΡΕΣ ΣΤΟΙΧΕΙΩΔΕΙΣ ΣΥΣΚΕΥΑΣΙΕΣ</span></b></p> <p class="MsoNormal" style="line-height:normal;border:none;padding:0in"></p> <p class="MsoNormal" style="line-height:normal;border:none;padding:0in"><b><span lang="EL">ΕΠΙΣΗΜΑΝΣΗ ΦΙΑΛΙΔΙΟΥ</span></b></p> </div><p class="MsoNormal" style="line-height:normal"></p><p class="MsoNormal" style="line-height:normal"></p><div style="border:solid windowtext 1.0pt;padding:1.0pt 4.0pt 1.0pt 4.0pt"> <p class="MsoNormal" style="margin-left:28.35pt;text-indent:-28.35pt;line-height: normal;page-break-after:avoid;border:none;padding:0in"><b><span lang="EL">1.       ΟΝΟΜΑΣΙΑ ΤΟΥ ΦΑΡΜΑΚΕΥΤΙΚΟΥ ΠΡΟΪΟΝΤΟΣ ΚΑΙ ΟΔΟΣ(ΟΙ) ΧΟΡΗΓΗΣΗΣ</span></b></p> </div><p class="MsoNormal" style="margin-left:28.35pt;text-indent:-28.35pt;line-height: normal"></p><p class="MsoNormal" style="line-height:normal"><span lang="EL">ELOCTA 1000 IU κόνις για ενέσιμο</span></p><p class="MsoNormal" style="line-height:normal"></p><p class="MsoNormal" style="line-height:normal"><span lang="EL">efmoroctocog alfa</span></p><p class="MsoNormal" style="line-height:normal"><span lang="EL">ανασυνδυασμένος παράγοντας πήξης VIII</span></p><p class="MsoNormal" style="line-height:normal"><span lang="EL">IV</span></p><p class="MsoNormal" style="line-height:normal"></p><p class="MsoNormal" style="line-height:normal"></p><div style="border:solid windowtext 1.0pt;padding:1.0pt 4.0pt 1.0pt 4.0pt"> <p class="MsoNormal" style="margin-left:28.35pt;text-indent:-28.35pt;line-height: normal;page-break-after:avoid;border:none;padding:0in"><b><span lang="EL">2.       ΤΡΟΠΟΣ ΧΟΡΗΓΗΣΗΣ</span></b></p> </div><p class="MsoNormal" style="line-height:normal"></p><p class="MsoNormal" style="line-height:normal"></p><div style="border:solid windowtext 1.0pt;padding:1.0pt 4.0pt 1.0pt 4.0pt"> <p class="MsoNormal" style="margin-left:28.35pt;text-indent:-28.35pt;line-height: normal;page-break-after:avoid;border:none;padding:0in"><b><span lang="EL">3.       ΗΜΕΡΟΜΗΝΙΑ ΛΗΞΗΣ</span></b></p> </div><p class="MsoNormal" style="line-height:normal"></p><p class="MsoNormal" style="line-height:normal"><span lang="EL">EXP</span></p><p class="MsoNormal" style="line-height:normal"></p><p class="MsoNormal" style="line-height:normal"></p><div style="border:solid windowtext 1.0pt;padding:1.0pt 4.0pt 1.0pt 4.0pt"> <p class="MsoNormal" style="margin-left:28.35pt;text-indent:-28.35pt;line-height: normal;page-break-after:avoid;border:none;padding:0in"><b><span lang="EL">4.       ΑΡΙΘΜΟΣ ΠΑΡΤΙΔΑΣ</span></b></p> </div><p class="MsoNormal" style="margin-right:5.65pt;line-height:normal"></p><p class="MsoNormal" style="margin-right:5.65pt;line-height:normal"><span lang="EL">Lot</span></p><p class="MsoNormal" style="margin-right:5.65pt;line-height:normal"></p><p class="MsoNormal" style="margin-right:5.65pt;line-height:normal"></p><div style="border:solid windowtext 1.0pt;padding:1.0pt 4.0pt 1.0pt 4.0pt"> <p class="MsoNormal" style="margin-left:28.35pt;text-indent:-28.35pt;line-height: normal;page-break-after:avoid;border:none;padding:0in"><b><span lang="EL">5.       ΠΕΡΙΕΧΟΜΕΝΟ ΚΑΤΑ ΒΑΡΟΣ, ΚΑΤ’ ΟΓΚΟ Ή ΚΑΤΑ ΜΟΝΑΔΑ</span></b></p> </div><p class="MsoNormal" style="margin-right:5.65pt;line-height:normal;page-break-after: avoid"></p><p class="MsoNormal" style="line-height:normal"><span lang="EL">1000 IU</span></p><p class="MsoNormal" style="margin-right:5.65pt;line-height:normal"></p><p class="MsoNormal" style="margin-right:5.65pt;line-height:normal"></p><div style="border:solid windowtext 1.0pt;padding:1.0pt 4.0pt 1.0pt 4.0pt"> <p class="MsoNormal" style="margin-left:28.35pt;text-indent:-28.35pt;line-height: normal;page-break-after:avoid;border:none;padding:0in"><b><span lang="EL">6.       ΑΛΛΑ ΣΤΟΙΧΕΙΑ</span></b></p> </div><p class="MsoNormal" style="margin-right:5.65pt;line-height:normal"></p><span lang="EL" style='font-size:11.0pt;font-family:"Times New Roman",serif'><br clear="all" style="page-break-before:always"/> </span><br clear="all" style="page-break-before:always"/><div style="border:solid windowtext 1.0pt;padding:1.0pt 4.0pt 1.0pt 4.0pt"> <p class="MsoNormal" style="line-height:normal;border:none;padding:0in"><b><span lang="EL">ΕΝΔΕΙΞΕΙΣ ΠΟΥ ΠΡΕΠΕΙ ΝΑ ΑΝΑΓΡΑΦΟΝΤΑΙ ΣΤΗΝ ΕΞΩΤΕΡΙΚΗ ΣΥΣΚΕΥΑΣΙΑ</span></b></p> <p class="MsoNormal" style="margin-left:28.35pt;text-indent:-28.35pt;line-height: normal;border:none;padding:0in"></p> <p class="MsoNormal" style="line-height:normal;border:none;padding:0in"><b><span lang="EL">ΧΑΡΤΙΝΟ ΚΟΥΤΙ</span></b></p> </div><p class="MsoNormal" style="line-height:normal"></p><p class="MsoNormal" style="line-height:normal"></p><div style="border:solid windowtext 1.0pt;padding:1.0pt 4.0pt 1.0pt 4.0pt"> <p class="MsoNormal" style="margin-left:28.35pt;text-indent:-28.35pt;line-height: normal;page-break-after:avoid;border:none;padding:0in"><b><span lang="EL">1.       ΟΝΟΜΑΣΙΑ ΤΟΥ ΦΑΡΜΑΚΕΥΤΙΚΟΥ ΠΡΟΪΟΝΤΟΣ</span></b></p> </div><p class="MsoNormal" style="line-height:normal"></p><p class="MsoNormal" style="line-height:normal"><span lang="EL">ELOCTA 1500 IU κόνις και διαλύτης για ενέσιμο διάλυμα</span></p><p class="MsoNormal" style="line-height:normal"></p><p class="MsoNormal" style="line-height:normal"><span lang="EL">efmoroctocog alfa </span></p><p class="MsoNormal" style="line-height:normal"><span lang="EL">(ανασυνδυασμένος παράγοντας πήξης VIII, πρωτεΐνη σύντηξης Fc)</span></p><p class="MsoNormal" style="line-height:normal"></p><p class="MsoNormal" style="line-height:normal"></p><div style="border:solid windowtext 1.0pt;padding:1.0pt 4.0pt 1.0pt 4.0pt"> <p class="MsoNormal" style="margin-left:28.35pt;text-indent:-28.35pt;line-height: normal;page-break-after:avoid;border:none;padding:0in"><b><span lang="EL">2.       ΣΥΝΘΕΣΗ ΣΕ ΔΡΑΣΤΙΚΗ(ΕΣ) ΟΥΣΙΑ(ΕΣ)</span></b></p> </div><p class="MsoNormal" style="line-height:normal"></p><p class="MsoNormal" style="line-height:normal"><span lang="EL">1 φιαλίδιο κόνεως περιέχει </span><span lang="EL">1500 IU efmoroctocog alfa (περ. 500 IU/ml μετά την ανασύσταση)</span></p><p class="MsoNormal" style="line-height:normal"></p><p class="MsoNormal" style="line-height:normal"></p><div style="border:solid windowtext 1.0pt;padding:1.0pt 4.0pt 1.0pt 4.0pt"> <p class="MsoNormal" style="margin-left:28.35pt;text-indent:-28.35pt;line-height: normal;page-break-after:avoid;border:none;padding:0in"><b><span lang="EL">3.       ΚΑΤΑΛΟΓΟΣ ΕΚΔΟΧΩΝ</span></b></p> </div><p class="MsoNormal" style="line-height:normal;page-break-after:avoid"></p><p class="MsoNormal" style="line-height:normal;text-autospace:none"><span lang="EL" style="color:black;background:#BFBFBF">Κόνις:</span><span lang="EL"> σακχαρόζη, χλωριούχο νάτριο, ιστιδίνη, δίυδρο χλωριούχο ασβέστιο, πολυσορβικό 20, υδροξείδιο του νατρίου, υδροχλωρικό οξύ.</span></p><p class="MsoNormal" style="line-height:normal;text-autospace:none"></p><p class="MsoNormal" style="line-height:normal;text-autospace:none"><span lang="EL">Διαλύτης: ύδωρ για ενέσιμα</span></p><p class="MsoNormal" style="line-height:normal;text-autospace:none"></p><p class="MsoNormal" style="line-height:normal;text-autospace:none"></p><div style="border:solid windowtext 1.0pt;padding:1.0pt 4.0pt 1.0pt 4.0pt"> <p class="MsoNormal" style="margin-left:28.35pt;text-indent:-28.35pt;line-height: normal;page-break-after:avoid;border:none;padding:0in"><b><span lang="EL">4.       ΦΑΡΜΑΚΟΤΕΧΝΙΚΗ ΜΟΡΦΗ ΚΑΙ ΠΕΡΙΕΧΟΜΕΝΟ</span></b></p> </div><p class="MsoNormal" style="line-height:normal;page-break-after:avoid"></p><p class="MsoNormal" style="line-height:normal;page-break-after:avoid"><span lang="EL" style="color:black;background:#BFBFBF">Κόνις και διαλύτης για ενέσιμο διάλυμα</span></p><p class="MsoNormal" style="line-height:normal;page-break-after:avoid"></p><p class="MsoNormal" style="line-height:normal"><span lang="EL">Περιεχόμενο: 1 φιαλίδιο κόνεως, 3 ml διαλύτη σε προγεμισμένη σύριγγα, 1 ράβδος εμβόλου, 1 προσαρμογέας φιαλιδίου, 1 σετ έγχυσης, 2 ταμπόν με οινόπνευμα, 2 έμπλαστρα, 1 γάζα.</span></p><p class="MsoNormal" style="line-height:normal"></p><p class="MsoNormal" style="line-height:normal"></p><div style="border:solid windowtext 1.0pt;padding:1.0pt 4.0pt 1.0pt 4.0pt"> <p class="MsoNormal" style="margin-left:28.35pt;text-indent:-28.35pt;line-height: normal;page-break-after:avoid;border:none;padding:0in"><b><span lang="EL">5.       ΤΡΟΠΟΣ ΚΑΙ ΟΔΟΣ(ΟΙ) ΧΟΡΗΓΗΣΗΣ</span></b></p> </div><p class="MsoNormal" style="line-height:normal"></p><p class="MsoNormal" style="line-height:normal"><span lang="EL">Ενδοφλέβια χρήση, μετά την ανασύσταση.</span></p><p class="MsoNormal" style="line-height:normal"><span lang="EL">Διαβάστε το φύλλο οδηγιών χρήσης πριν από τη χρήση.</span></p><p class="MsoNormal" style="line-height:normal"></p><p class="MsoNormal" style="line-height:normal"><span lang="EL">Ένα βίντεο οδηγιών για την προετοιμασία και χορήγηση του ELOCTA είναι διαθέσιμο σαρώνοντας τον κωδικό QR με ένα smartphone </span><span lang="EL">ή μέσω του δικτυακού τόπου</span><span lang="EL">.</span></p><p class="MsoNormal" style="line-height:normal"></p><p class="MsoNormal" style="line-height:normal"><span lang="EL" style="color:black; background:#BFBFBF">Κωδικός QR που θα συμπεριληφθεί+</span><span lang="EN-GB"><a href="http://www.eloct-instructions.com/"><span lang="EL">http://www.elocta-instructions.com</span></a></span></p><p class="MsoNormal" style="line-height:normal"></p><p class="MsoNormal" style="line-height:normal"></p><div style="border:solid windowtext 1.0pt;padding:1.0pt 4.0pt 1.0pt 4.0pt"> <p class="MsoNormal" style="margin-left:28.35pt;text-indent:-28.35pt;line-height: normal;page-break-after:avoid;border:none;padding:0in"><b><span lang="EL">6.       ΕΙΔΙΚΗ ΠΡΟΕΙΔΟΠΟΙΗΣΗ ΣΥΜΦΩΝΑ ΜΕ ΤΗΝ ΟΠΟΙΑ ΤΟ ΦΑΡΜΑΚΕΥΤΙΚΟ ΠΡΟΪΟΝ ΠΡΕΠΕΙ ΝΑ ΦΥΛΑΣΣΕΤΑΙ ΣΕ ΘΕΣΗ ΤΗΝ ΟΠΟΙΑ ΔΕΝ ΒΛΕΠΟΥΝ ΚΑΙ ΔΕΝ ΠΡΟΣΕΓΓΙΖΟΥΝ ΤΑ ΠΑΙΔΙΑ</span></b></p> </div><p class="MsoNormal" style="line-height:normal;page-break-after:avoid"></p><p class="MsoNormal" style="line-height:normal"><span lang="EL">Να φυλάσσεται σε θέση, την οποία δεν βλέπουν και δεν προσεγγίζουν τα παιδιά.</span></p><p class="MsoNormal" style="line-height:normal"></p><p class="MsoNormal" style="line-height:normal"></p><div style="border:solid windowtext 1.0pt;padding:1.0pt 4.0pt 1.0pt 4.0pt"> <p class="MsoNormal" style="margin-left:28.35pt;text-indent:-28.35pt;line-height: normal;page-break-after:avoid;border:none;padding:0in"><b><span lang="EL">7.       ΑΛΛΗ(ΕΣ) ΕΙΔΙΚΗ(ΕΣ) ΠΡΟΕΙΔΟΠΟΙΗΣΗ(ΕΙΣ), ΕΑΝ ΕΙΝΑΙ ΑΠΑΡΑΙΤΗΤΗ(ΕΣ)</span></b></p> </div><p class="MsoNormal" style="line-height:normal"></p><p class="MsoNormal" style="line-height:normal"></p><div style="border:solid windowtext 1.0pt;padding:1.0pt 4.0pt 1.0pt 4.0pt"> <p class="MsoNormal" style="margin-left:28.35pt;text-indent:-28.35pt;line-height: normal;page-break-after:avoid;border:none;padding:0in"><b><span lang="EL">8.       ΗΜΕΡΟΜΗΝΙΑ ΛΗΞΗΣ</span></b></p> </div><p class="MsoNormal" style="line-height:normal"></p><p class="MsoNormal" style="line-height:normal"><span lang="EL">EXP</span></p><p class="MsoNormal" style="line-height:normal"></p><p class="MsoNormal" style="line-height:normal"><span lang="EL">Χρησιμοποιήστε εντός 6 ωρών μετά την ανασύσταση.</span></p><p class="MsoNormal" style="line-height:normal"></p><p class="MsoNormal" style="line-height:normal"></p><div style="border:solid windowtext 1.0pt;padding:1.0pt 4.0pt 1.0pt 4.0pt"> <p class="MsoNormal" style="margin-left:28.35pt;text-indent:-28.35pt;line-height: normal;page-break-after:avoid;border:none;padding:0in"><b><span lang="EL">9.       ΕΙΔΙΚΕΣ ΣΥΝΘΗΚΕΣ ΦΥΛΑΞΗΣ</span></b></p> </div><p class="MsoNormal" style="line-height:normal;page-break-after:avoid"></p><p class="MsoNormal" style="line-height:normal"><span lang="EL">Φυλάσσετε σε ψυγείο.</span></p><p class="MsoNormal" style="line-height:normal"><span lang="EL">Μην καταψύχετε.</span></p><p class="MsoNormal" style="line-height:normal"><span lang="EL">Φυλάσσετε το φιαλίδιο στο εξωτερικό κουτί για να προστατεύεται από το φως.</span></p><p class="MsoNormal" style="line-height:normal"><span lang="EL">Μπορεί να φυλάσσεται σε θερμοκρασία δωματίου (μέχρι 30°C) για μια μεμονωμένη περίοδο μέχρι 6 μήνες. Δεν πρέπει να επιστραφεί στο ψυγείο μετά τη φύλαξη σε θερμοκρασία δωματίου. Ημερομηνία που βγήκε από το ψυγείο:</span></p><p class="MsoNormal" style="line-height:normal"></p><p class="MsoNormal" style="margin-left:28.35pt;text-indent:-28.35pt;line-height: normal"></p><div style="border:solid windowtext 1.0pt;padding:1.0pt 4.0pt 1.0pt 4.0pt"> <p class="MsoNormal" style="margin-left:28.35pt;text-indent:-28.35pt;line-height: normal;page-break-after:avoid;border:none;padding:0in"><b><span lang="EL">10.     ΙΔΙΑΙΤΕΡΕΣ ΠΡΟΦΥΛΑΞΕΙΣ ΓΙΑ ΤΗΝ ΑΠΟΡΡΙΨΗ ΤΩΝ ΜΗ ΧΡΗΣΙΜΟΠΟΙΗΘΕΝΤΩΝ ΦΑΡΜΑΚΕΥΤΙΚΩΝ ΠΡΟΪΟΝΤΩΝ Ή ΤΩΝ ΥΠΟΛΕΙΜΜΑΤΩΝ ΠΟΥ ΠΡΟΕΡΧΟΝΤΑΙ ΑΠΟ ΑΥΤΑ, ΕΦΟΣΟΝ ΑΠΑΙΤΕΙΤΑΙ</span></b></p> </div><p class="MsoNormal" style="line-height:normal;page-break-after:avoid"></p><p class="MsoNormal" style="line-height:normal"></p><div style="border:solid windowtext 1.0pt;padding:1.0pt 4.0pt 1.0pt 4.0pt"> <p class="MsoNormal" style="margin-left:28.35pt;text-indent:-28.35pt;line-height: normal;page-break-after:avoid;border:none;padding:0in"><b><span lang="EL">11.     ΟΝΟΜΑ ΚΑΙ ΔΙΕΥΘΥΝΣΗ ΚΑΤΟΧΟΥ ΤΗΣ ΑΔΕΙΑΣ ΚΥΚΛΟΦΟΡΙΑΣ</span></b></p> </div><p class="MsoNormal" style="line-height:normal;page-break-after:avoid"></p><p class="MsoNormal" style="line-height:normal"><span lang="EL">Swedish Orphan Biovitrum AB (publ)</span></p><p class="MsoNormal" style="line-height:normal"><span lang="EL">SE-112 76 Stockholm</span></p><p class="MsoNormal" style="line-height:normal"><span lang="EL">Σουηδία</span></p><p class="MsoNormal" style="line-height:normal"></p><p class="MsoNormal" style="line-height:normal"></p><div style="border:solid windowtext 1.0pt;padding:1.0pt 4.0pt 1.0pt 4.0pt"> <p class="MsoNormal" style="margin-left:28.35pt;text-indent:-28.35pt;line-height: normal;page-break-after:avoid;border:none;padding:0in"><b><span lang="EL">12.     ΑΡΙΘΜΟΣ(ΟΙ) ΑΔΕΙΑΣ ΚΥΚΛΟΦΟΡΙΑΣ</span></b></p> </div><p class="MsoNormal" style="line-height:normal"></p><p class="MsoNormal" style="line-height:normal"><span lang="EL">EU/1/15/1046/005</span></p><p class="MsoNormal" style="line-height:normal"></p><p class="MsoNormal" style="line-height:normal"></p><div style="border:solid windowtext 1.0pt;padding:1.0pt 4.0pt 1.0pt 4.0pt"> <p class="MsoNormal" style="margin-left:28.35pt;text-indent:-28.35pt;line-height: normal;page-break-after:avoid;border:none;padding:0in"><b><span lang="EL">13.     ΑΡΙΘΜΟΣ ΠΑΡΤΙΔΑΣ</span></b></p> </div><p class="MsoNormal" style="line-height:normal"></p><p class="MsoNormal" style="line-height:normal"><span lang="EL">Lot</span></p><p class="MsoNormal" style="line-height:normal"></p><p class="MsoNormal" style="line-height:normal"></p><div style="border:solid windowtext 1.0pt;padding:1.0pt 4.0pt 1.0pt 4.0pt"> <p class="MsoNormal" style="margin-left:28.35pt;text-indent:-28.35pt;line-height: normal;page-break-after:avoid;border:none;padding:0in"><b><span lang="EL">14.     ΓΕΝΙΚΗ ΚΑΤΑΤΑΞΗ ΓΙΑ ΤΗ ΔΙΑΘΕΣΗ</span></b></p> </div><p class="MsoNormal" style="line-height:normal"></p><p class="MsoNormal" style="line-height:normal"></p><div style="border:solid windowtext 1.0pt;padding:1.0pt 4.0pt 1.0pt 4.0pt"> <p class="MsoNormal" style="margin-left:28.35pt;text-indent:-28.35pt;line-height: normal;page-break-after:avoid;border:none;padding:0in"><b><span lang="EL">15.     ΟΔΗΓΙΕΣ ΧΡΗΣΗΣ</span></b></p> </div><p class="MsoNormal" style="line-height:normal"></p><p class="MsoNormal" style="line-height:normal"></p><p class="MsoNormal" style="line-height:normal"></p><div style="border:solid windowtext 1.0pt;padding:1.0pt 4.0pt 1.0pt 4.0pt"> <p class="MsoNormal" style="margin-left:28.35pt;text-indent:-28.35pt;line-height: normal;page-break-after:avoid;border:none;padding:0in"><b><span lang="EL">16.     ΠΛΗΡΟΦΟΡΙΕΣ ΣΕ BRAILLE</span></b></p> </div><p class="MsoNormal" style="line-height:normal;page-break-after:avoid"></p><p class="MsoNormal" style="line-height:normal"><span lang="EL">ELOCTA 1500</span></p><p class="MsoNormal" style="line-height:normal"></p><p class="MsoNormal" style="line-height:normal"></p><div style="border:solid windowtext 1.0pt;padding:1.0pt 4.0pt 1.0pt 4.0pt"> <p class="MsoNormal" style="margin-left:28.35pt;text-indent:-28.35pt;line-height: normal;page-break-after:avoid;border:none;padding:0in"><b><span lang="EL">17.     ΜΟΝΑΔΙΚΟΣ ΑΝΑΓΝΩΡΙΣΤΙΚΟΣ ΚΩΔΙΚΟΣ – ΔΙΣΔΙΑΣΤΑΤΟΣ ΓΡΑΜΜΩΤΟΣ ΚΩΔΙΚΑΣ (2D)</span></b></p> </div><p class="MsoNormal" style="line-height:normal;page-break-after:avoid"></p><p class="MsoNormal" style="line-height:normal"><span lang="EL" style="color:black; background:#D9D9D9">Δισδιάστατος γραμμωτός κώδικας (2D) που φέρει τον περιληφθέντα μοναδικό αναγνωριστικό κωδικό.</span></p><p class="MsoNormal" style="line-height:normal"></p><p class="MsoNormal" style="line-height:normal"></p><div style="border:solid windowtext 1.0pt;padding:1.0pt 4.0pt 1.0pt 4.0pt"> <p class="MsoNormal" style="margin-left:28.35pt;text-indent:-28.35pt;line-height: normal;page-break-after:avoid;border:none;padding:0in"><b><span lang="EL">18.     ΜΟΝΑΔΙΚΟΣ ΑΝΑΓΝΩΡΙΣΤΙΚΟΣ ΚΩΔΙΚΟΣ – ΔΕΔΟΜΕΝΑ ΑΝΑΓΝΩΣΙΜΑ ΑΠΟ ΤΟΝ ΑΝΘΡΩΠΟ</span></b></p> </div><p class="MsoNormal" style="line-height:normal;page-break-after:avoid"></p><p class="MsoNormal" style="line-height:normal;page-break-after:avoid"><span lang="EL">PC</span></p><p class="MsoNormal" style="line-height:normal;page-break-after:avoid"><span lang="EL">SN</span></p><p class="MsoNormal" style="line-height:normal"><span lang="EL">NN</span></p><p class="MsoNormal" style="line-height:normal"></p><span lang="EL" style='font-size:11.0pt;font-family:"Times New Roman",serif; color:black;background:#CCCCCC'><br clear="all" style="page-break-before:always"/> </span><br clear="all" style="page-break-before:always"/><p class="MsoNormal" style="line-height:normal"></p><div style="border:solid windowtext 1.0pt;padding:1.0pt 4.0pt 1.0pt 4.0pt"> <p class="MsoNormal" style="line-height:normal;border:none;padding:0in"><b><span lang="EL">ΕΛΑΧΙΣΤΕΣ ΕΝΔΕΙΞΕΙΣ ΠΟΥ ΠΡΕΠΕΙ ΝΑ ΑΝΑΓΡΑΦΟΝΤΑΙ ΣΤΙΣ ΜΙΚΡΕΣ ΣΤΟΙΧΕΙΩΔΕΙΣ ΣΥΣΚΕΥΑΣΙΕΣ</span></b></p> <p class="MsoNormal" style="line-height:normal;border:none;padding:0in"></p> <p class="MsoNormal" style="line-height:normal;border:none;padding:0in"><b><span lang="EL">ΕΠΙΣΗΜΑΝΣΗ ΦΙΑΛΙΔΙΟΥ</span></b></p> </div><p class="MsoNormal" style="line-height:normal"></p><p class="MsoNormal" style="line-height:normal"></p><div style="border:solid windowtext 1.0pt;padding:1.0pt 4.0pt 1.0pt 4.0pt"> <p class="MsoNormal" style="margin-left:28.35pt;text-indent:-28.35pt;line-height: normal;page-break-after:avoid;border:none;padding:0in"><b><span lang="EL">1.       ΟΝΟΜΑΣΙΑ ΤΟΥ ΦΑΡΜΑΚΕΥΤΙΚΟΥ ΠΡΟΪΟΝΤΟΣ ΚΑΙ ΟΔΟΣ(ΟΙ) ΧΟΡΗΓΗΣΗΣ</span></b></p> </div><p class="MsoNormal" style="margin-left:28.35pt;text-indent:-28.35pt;line-height: normal"></p><p class="MsoNormal" style="line-height:normal"><span lang="EL">ELOCTA 1500 IU κόνις για ενέσιμο</span></p><p class="MsoNormal" style="line-height:normal"></p><p class="MsoNormal" style="line-height:normal"><span lang="EL">efmoroctocog alfa</span></p><p class="MsoNormal" style="line-height:normal"><span lang="EL">ανασυνδυασμένος παράγοντας πήξης VIII</span></p><p class="MsoNormal" style="line-height:normal"><span lang="EL">IV</span></p><p class="MsoNormal" style="line-height:normal"></p><p class="MsoNormal" style="line-height:normal"></p><div style="border:solid windowtext 1.0pt;padding:1.0pt 4.0pt 1.0pt 4.0pt"> <p class="MsoNormal" style="margin-left:28.35pt;text-indent:-28.35pt;line-height: normal;page-break-after:avoid;border:none;padding:0in"><b><span lang="EL">2.       ΤΡΟΠΟΣ ΧΟΡΗΓΗΣΗΣ</span></b></p> </div><p class="MsoNormal" style="line-height:normal"></p><p class="MsoNormal" style="line-height:normal"></p><div style="border:solid windowtext 1.0pt;padding:1.0pt 4.0pt 1.0pt 4.0pt"> <p class="MsoNormal" style="margin-left:28.35pt;text-indent:-28.35pt;line-height: normal;page-break-after:avoid;border:none;padding:0in"><b><span lang="EL">3.       ΗΜΕΡΟΜΗΝΙΑ ΛΗΞΗΣ</span></b></p> </div><p class="MsoNormal" style="line-height:normal"></p><p class="MsoNormal" style="line-height:normal"><span lang="EL">EXP</span></p><p class="MsoNormal" style="line-height:normal"></p><p class="MsoNormal" style="line-height:normal"></p><div style="border:solid windowtext 1.0pt;padding:1.0pt 4.0pt 1.0pt 4.0pt"> <p class="MsoNormal" style="margin-left:28.35pt;text-indent:-28.35pt;line-height: normal;page-break-after:avoid;border:none;padding:0in"><b><span lang="EL">4.       ΑΡΙΘΜΟΣ ΠΑΡΤΙΔΑΣ</span></b></p> </div><p class="MsoNormal" style="margin-right:5.65pt;line-height:normal"></p><p class="MsoNormal" style="margin-right:5.65pt;line-height:normal"><span lang="EL">Lot</span></p><p class="MsoNormal" style="margin-right:5.65pt;line-height:normal"></p><p class="MsoNormal" style="margin-right:5.65pt;line-height:normal"></p><div style="border:solid windowtext 1.0pt;padding:1.0pt 4.0pt 1.0pt 4.0pt"> <p class="MsoNormal" style="margin-left:28.35pt;text-indent:-28.35pt;line-height: normal;page-break-after:avoid;border:none;padding:0in"><b><span lang="EL">5.       ΠΕΡΙΕΧΟΜΕΝΟ ΚΑΤΑ ΒΑΡΟΣ, ΚΑΤ’ ΟΓΚΟ Ή ΚΑΤΑ ΜΟΝΑΔΑ</span></b></p> </div><p class="MsoNormal" style="margin-right:5.65pt;line-height:normal;page-break-after: avoid"></p><p class="MsoNormal" style="line-height:normal"><span lang="EL">1500 IU</span></p><p class="MsoNormal" style="margin-right:5.65pt;line-height:normal"></p><p class="MsoNormal" style="margin-right:5.65pt;line-height:normal"></p><div style="border:solid windowtext 1.0pt;padding:1.0pt 4.0pt 1.0pt 4.0pt"> <p class="MsoNormal" style="margin-left:28.35pt;text-indent:-28.35pt;line-height: normal;page-break-after:avoid;border:none;padding:0in"><b><span lang="EL">6.       ΑΛΛΑ ΣΤΟΙΧΕΙΑ</span></b></p> </div><p class="MsoNormal" style="margin-right:5.65pt;line-height:normal"></p><span lang="EL" style='font-size:11.0pt;font-family:"Times New Roman",serif'><br clear="all" style="page-break-before:always"/> </span><br clear="all" style="page-break-before:always"/><div style="border:solid windowtext 1.0pt;padding:1.0pt 4.0pt 1.0pt 4.0pt"> <p class="MsoNormal" style="line-height:normal;border:none;padding:0in"><b><span lang="EL">ΕΝΔΕΙΞΕΙΣ ΠΟΥ ΠΡΕΠΕΙ ΝΑ ΑΝΑΓΡΑΦΟΝΤΑΙ ΣΤΗΝ ΕΞΩΤΕΡΙΚΗ ΣΥΣΚΕΥΑΣΙΑ</span></b></p> <p class="MsoNormal" style="margin-left:28.35pt;text-indent:-28.35pt;line-height: normal;border:none;padding:0in"></p> <p class="MsoNormal" style="line-height:normal;border:none;padding:0in"><b><span lang="EL">ΧΑΡΤΙΝΟ ΚΟΥΤΙ</span></b></p> </div><p class="MsoNormal" style="line-height:normal"></p><p class="MsoNormal" style="line-height:normal"></p><div style="border:solid windowtext 1.0pt;padding:1.0pt 4.0pt 1.0pt 4.0pt"> <p class="MsoNormal" style="margin-left:28.35pt;text-indent:-28.35pt;line-height: normal;page-break-after:avoid;border:none;padding:0in"><b><span lang="EL">1.       ΟΝΟΜΑΣΙΑ ΤΟΥ ΦΑΡΜΑΚΕΥΤΙΚΟΥ ΠΡΟΪΟΝΤΟΣ</span></b></p> </div><p class="MsoNormal" style="line-height:normal"></p><p class="MsoNormal" style="line-height:normal"><span lang="EL">ELOCTA 2000 IU κόνις και διαλύτης για ενέσιμο διάλυμα</span></p><p class="MsoNormal" style="line-height:normal"></p><p class="MsoNormal" style="line-height:normal"><span lang="EL">efmoroctocog alfa </span></p><p class="MsoNormal" style="line-height:normal"><span lang="EL">(ανασυνδυασμένος παράγοντας πήξης VIII, πρωτεΐνη σύντηξης Fc)</span></p><p class="MsoNormal" style="line-height:normal"></p><p class="MsoNormal" style="line-height:normal"></p><div style="border:solid windowtext 1.0pt;padding:1.0pt 4.0pt 1.0pt 4.0pt"> <p class="MsoNormal" style="margin-left:28.35pt;text-indent:-28.35pt;line-height: normal;page-break-after:avoid;border:none;padding:0in"><b><span lang="EL">2.       ΣΥΝΘΕΣΗ ΣΕ ΔΡΑΣΤΙΚΗ(ΕΣ) ΟΥΣΙΑ(ΕΣ)</span></b></p> </div><p class="MsoNormal" style="line-height:normal"></p><p class="MsoNormal" style="line-height:normal"><span lang="EL">1 φιαλίδιο κόνεως περιέχει </span><span lang="EL">2000 IU efmoroctocog alfa (περ. 667 IU/ml μετά την ανασύσταση)</span></p><p class="MsoNormal" style="line-height:normal"></p><p class="MsoNormal" style="line-height:normal"></p><div style="border:solid windowtext 1.0pt;padding:1.0pt 4.0pt 1.0pt 4.0pt"> <p class="MsoNormal" style="margin-left:28.35pt;text-indent:-28.35pt;line-height: normal;page-break-after:avoid;border:none;padding:0in"><b><span lang="EL">3.       ΚΑΤΑΛΟΓΟΣ ΕΚΔΟΧΩΝ</span></b></p> </div><p class="MsoNormal" style="line-height:normal;page-break-after:avoid"></p><p class="MsoNormal" style="line-height:normal;text-autospace:none"><span lang="EL" style="color:black;background:#BFBFBF">Κόνις:</span><span lang="EL"> σακχαρόζη, χλωριούχο νάτριο, ιστιδίνη, δίυδρο χλωριούχο ασβέστιο, πολυσορβικό 20, υδροξείδιο του νατρίου, υδροχλωρικό οξύ.</span></p><p class="MsoNormal" style="line-height:normal;text-autospace:none"></p><p class="MsoNormal" style="line-height:normal;text-autospace:none"><span lang="EL">Διαλύτης: ύδωρ για ενέσιμα</span></p><p class="MsoNormal" style="line-height:normal;text-autospace:none"></p><p class="MsoNormal" style="line-height:normal;text-autospace:none"></p><div style="border:solid windowtext 1.0pt;padding:1.0pt 4.0pt 1.0pt 4.0pt"> <p class="MsoNormal" style="margin-left:28.35pt;text-indent:-28.35pt;line-height: normal;page-break-after:avoid;border:none;padding:0in"><b><span lang="EL">4.       ΦΑΡΜΑΚΟΤΕΧΝΙΚΗ ΜΟΡΦΗ ΚΑΙ ΠΕΡΙΕΧΟΜΕΝΟ</span></b></p> </div><p class="MsoNormal" style="line-height:normal;page-break-after:avoid"></p><p class="MsoNormal" style="line-height:normal;page-break-after:avoid"><span lang="EL" style="color:black;background:#BFBFBF">Κόνις και διαλύτης για ενέσιμο διάλυμα</span></p><p class="MsoNormal" style="line-height:normal;page-break-after:avoid"></p><p class="MsoNormal" style="line-height:normal"><span lang="EL">Περιεχόμενο: 1 φιαλίδιο κόνεως, 3 ml διαλύτη σε προγεμισμένη σύριγγα, 1 ράβδος εμβόλου, 1 προσαρμογέας φιαλιδίου, 1 σετ έγχυσης, 2 ταμπόν με οινόπνευμα, 2 έμπλαστρα, 1 γάζα.</span></p><p class="MsoNormal" style="line-height:normal"></p><p class="MsoNormal" style="line-height:normal"></p><div style="border:solid windowtext 1.0pt;padding:1.0pt 4.0pt 1.0pt 4.0pt"> <p class="MsoNormal" style="margin-left:28.35pt;text-indent:-28.35pt;line-height: normal;page-break-after:avoid;border:none;padding:0in"><b><span lang="EL">5.       ΤΡΟΠΟΣ ΚΑΙ ΟΔΟΣ(ΟΙ) ΧΟΡΗΓΗΣΗΣ</span></b></p> </div><p class="MsoNormal" style="line-height:normal"></p><p class="MsoNormal" style="line-height:normal"><span lang="EL">Ενδοφλέβια χρήση, μετά την ανασύσταση.</span></p><p class="MsoNormal" style="line-height:normal"><span lang="EL">Διαβάστε το φύλλο οδηγιών χρήσης πριν από τη χρήση.</span></p><p class="MsoNormal" style="line-height:normal"></p><p class="MsoNormal" style="line-height:normal"><span lang="EL">Ένα βίντεο οδηγιών για την προετοιμασία και χορήγηση του ELOCTA είναι διαθέσιμο σαρώνοντας τον κωδικό QR με ένα smartphone </span><span lang="EL">ή μέσω του δικτυακού τόπου</span><span lang="EL">.</span></p><p class="MsoNormal" style="line-height:normal"></p><p class="MsoNormal" style="line-height:normal"><span lang="EL" style="color:black; background:#BFBFBF">Κωδικός QR που θα συμπεριληφθεί+</span><span lang="EN-GB"><a href="http://www.eloct-instructions.com/"><span lang="EL">http://www.elocta-instructions.com</span></a></span></p><p class="MsoNormal" style="line-height:normal"></p><p class="MsoNormal" style="line-height:normal"></p><div style="border:solid windowtext 1.0pt;padding:1.0pt 4.0pt 1.0pt 4.0pt"> <p class="MsoNormal" style="margin-left:28.35pt;text-indent:-28.35pt;line-height: normal;page-break-after:avoid;border:none;padding:0in"><b><span lang="EL">6.       ΕΙΔΙΚΗ ΠΡΟΕΙΔΟΠΟΙΗΣΗ ΣΥΜΦΩΝΑ ΜΕ ΤΗΝ ΟΠΟΙΑ ΤΟ ΦΑΡΜΑΚΕΥΤΙΚΟ ΠΡΟΪΟΝ ΠΡΕΠΕΙ ΝΑ ΦΥΛΑΣΣΕΤΑΙ ΣΕ ΘΕΣΗ ΤΗΝ ΟΠΟΙΑ ΔΕΝ ΒΛΕΠΟΥΝ ΚΑΙ ΔΕΝ ΠΡΟΣΕΓΓΙΖΟΥΝ ΤΑ ΠΑΙΔΙΑ</span></b></p> </div><p class="MsoNormal" style="line-height:normal;page-break-after:avoid"></p><p class="MsoNormal" style="line-height:normal"><span lang="EL">Να φυλάσσεται σε θέση, την οποία δεν βλέπουν και δεν προσεγγίζουν τα παιδιά.</span></p><p class="MsoNormal" style="line-height:normal"></p><p class="MsoNormal" style="line-height:normal"></p><div style="border:solid windowtext 1.0pt;padding:1.0pt 4.0pt 1.0pt 4.0pt"> <p class="MsoNormal" style="margin-left:28.35pt;text-indent:-28.35pt;line-height: normal;page-break-after:avoid;border:none;padding:0in"><b><span lang="EL">7.       ΑΛΛΗ(ΕΣ) ΕΙΔΙΚΗ(ΕΣ) ΠΡΟΕΙΔΟΠΟΙΗΣΗ(ΕΙΣ), ΕΑΝ ΕΙΝΑΙ ΑΠΑΡΑΙΤΗΤΗ(ΕΣ)</span></b></p> </div><p class="MsoNormal" style="line-height:normal"></p><p class="MsoNormal" style="line-height:normal"></p><div style="border:solid windowtext 1.0pt;padding:1.0pt 4.0pt 1.0pt 4.0pt"> <p class="MsoNormal" style="margin-left:28.35pt;text-indent:-28.35pt;line-height: normal;page-break-after:avoid;border:none;padding:0in"><b><span lang="EL">8.       ΗΜΕΡΟΜΗΝΙΑ ΛΗΞΗΣ</span></b></p> </div><p class="MsoNormal" style="line-height:normal"></p><p class="MsoNormal" style="line-height:normal"><span lang="EL">EXP</span></p><p class="MsoNormal" style="line-height:normal"></p><p class="MsoNormal" style="line-height:normal"><span lang="EL">Χρησιμοποιήστε εντός 6 ωρών μετά την ανασύσταση.</span></p><p class="MsoNormal" style="line-height:normal"></p><p class="MsoNormal" style="line-height:normal"></p><div style="border:solid windowtext 1.0pt;padding:1.0pt 4.0pt 1.0pt 4.0pt"> <p class="MsoNormal" style="margin-left:28.35pt;text-indent:-28.35pt;line-height: normal;page-break-after:avoid;border:none;padding:0in"><b><span lang="EL">9.       ΕΙΔΙΚΕΣ ΣΥΝΘΗΚΕΣ ΦΥΛΑΞΗΣ</span></b></p> </div><p class="MsoNormal" style="line-height:normal;page-break-after:avoid"></p><p class="MsoNormal" style="line-height:normal"><span lang="EL">Φυλάσσετε σε ψυγείο.</span></p><p class="MsoNormal" style="line-height:normal"><span lang="EL">Μην καταψύχετε.</span></p><p class="MsoNormal" style="line-height:normal"><span lang="EL">Φυλάσσετε το φιαλίδιο στο εξωτερικό κουτί για να προστατεύεται από το φως.</span></p><p class="MsoNormal" style="line-height:normal"><span lang="EL">Μπορεί να φυλάσσεται σε θερμοκρασία δωματίου (μέχρι 30°C) για μια μεμονωμένη περίοδο μέχρι 6 μήνες. Δεν πρέπει να επιστραφεί στο ψυγείο μετά τη φύλαξη σε θερμοκρασία δωματίου. Ημερομηνία που βγήκε από το ψυγείο:</span></p><p class="MsoNormal" style="line-height:normal"></p><p class="MsoNormal" style="margin-left:28.35pt;text-indent:-28.35pt;line-height: normal"></p><div style="border:solid windowtext 1.0pt;padding:1.0pt 4.0pt 1.0pt 4.0pt"> <p class="MsoNormal" style="margin-left:28.35pt;text-indent:-28.35pt;line-height: normal;page-break-after:avoid;border:none;padding:0in"><b><span lang="EL">10.     ΙΔΙΑΙΤΕΡΕΣ ΠΡΟΦΥΛΑΞΕΙΣ ΓΙΑ ΤΗΝ ΑΠΟΡΡΙΨΗ ΤΩΝ ΜΗ ΧΡΗΣΙΜΟΠΟΙΗΘΕΝΤΩΝ ΦΑΡΜΑΚΕΥΤΙΚΩΝ ΠΡΟΪΟΝΤΩΝ Ή ΤΩΝ ΥΠΟΛΕΙΜΜΑΤΩΝ ΠΟΥ ΠΡΟΕΡΧΟΝΤΑΙ ΑΠΟ ΑΥΤΑ, ΕΦΟΣΟΝ ΑΠΑΙΤΕΙΤΑΙ</span></b></p> </div><p class="MsoNormal" style="line-height:normal;page-break-after:avoid"></p><p class="MsoNormal" style="line-height:normal"></p><div style="border:solid windowtext 1.0pt;padding:1.0pt 4.0pt 1.0pt 4.0pt"> <p class="MsoNormal" style="margin-left:28.35pt;text-indent:-28.35pt;line-height: normal;page-break-after:avoid;border:none;padding:0in"><b><span lang="EL">11.     ΟΝΟΜΑ ΚΑΙ ΔΙΕΥΘΥΝΣΗ ΚΑΤΟΧΟΥ ΤΗΣ ΑΔΕΙΑΣ ΚΥΚΛΟΦΟΡΙΑΣ</span></b></p> </div><p class="MsoNormal" style="line-height:normal;page-break-after:avoid"></p><p class="MsoNormal" style="line-height:normal"><span lang="EL">Swedish Orphan Biovitrum AB (publ)</span></p><p class="MsoNormal" style="line-height:normal"><span lang="EL">SE-112 76 Stockholm</span></p><p class="MsoNormal" style="line-height:normal"><span lang="EL">Σουηδία</span></p><p class="MsoNormal" style="line-height:normal"></p><p class="MsoNormal" style="line-height:normal"></p><div style="border:solid windowtext 1.0pt;padding:1.0pt 4.0pt 1.0pt 4.0pt"> <p class="MsoNormal" style="margin-left:28.35pt;text-indent:-28.35pt;line-height: normal;page-break-after:avoid;border:none;padding:0in"><b><span lang="EL">12.     ΑΡΙΘΜΟΣ(ΟΙ) ΑΔΕΙΑΣ ΚΥΚΛΟΦΟΡΙΑΣ</span></b></p> </div><p class="MsoNormal" style="line-height:normal"></p><p class="MsoNormal" style="line-height:normal"><span lang="EL">EU/1/15/1046/006</span></p><p class="MsoNormal" style="line-height:normal"></p><p class="MsoNormal" style="line-height:normal"></p><div style="border:solid windowtext 1.0pt;padding:1.0pt 4.0pt 1.0pt 4.0pt"> <p class="MsoNormal" style="margin-left:28.35pt;text-indent:-28.35pt;line-height: normal;page-break-after:avoid;border:none;padding:0in"><b><span lang="EL">13.     ΑΡΙΘΜΟΣ ΠΑΡΤΙΔΑΣ</span></b></p> </div><p class="MsoNormal" style="line-height:normal"></p><p class="MsoNormal" style="line-height:normal"><span lang="EL">Lot</span></p><p class="MsoNormal" style="line-height:normal"></p><p class="MsoNormal" style="line-height:normal"></p><div style="border:solid windowtext 1.0pt;padding:1.0pt 4.0pt 1.0pt 4.0pt"> <p class="MsoNormal" style="margin-left:28.35pt;text-indent:-28.35pt;line-height: normal;page-break-after:avoid;border:none;padding:0in"><b><span lang="EL">14.     ΓΕΝΙΚΗ ΚΑΤΑΤΑΞΗ ΓΙΑ ΤΗ ΔΙΑΘΕΣΗ</span></b></p> </div><p class="MsoNormal" style="line-height:normal"></p><p class="MsoNormal" style="line-height:normal"></p><div style="border:solid windowtext 1.0pt;padding:1.0pt 4.0pt 1.0pt 4.0pt"> <p class="MsoNormal" style="margin-left:28.35pt;text-indent:-28.35pt;line-height: normal;page-break-after:avoid;border:none;padding:0in"><b><span lang="EL">15.     ΟΔΗΓΙΕΣ ΧΡΗΣΗΣ</span></b></p> </div><p class="MsoNormal" style="line-height:normal"></p><p class="MsoNormal" style="line-height:normal"></p><p class="MsoNormal" style="line-height:normal"></p><div style="border:solid windowtext 1.0pt;padding:1.0pt 4.0pt 1.0pt 4.0pt"> <p class="MsoNormal" style="margin-left:28.35pt;text-indent:-28.35pt;line-height: normal;page-break-after:avoid;border:none;padding:0in"><b><span lang="EL">16.     ΠΛΗΡΟΦΟΡΙΕΣ ΣΕ BRAILLE</span></b></p> </div><p class="MsoNormal" style="line-height:normal;page-break-after:avoid"></p><p class="MsoNormal" style="line-height:normal"><span lang="EL">ELOCTA 2000</span></p><p class="MsoNormal" style="line-height:normal"></p><p class="MsoNormal" style="line-height:normal"></p><div style="border:solid windowtext 1.0pt;padding:1.0pt 4.0pt 1.0pt 4.0pt"> <p class="MsoNormal" style="margin-left:28.35pt;text-indent:-28.35pt;line-height: normal;page-break-after:avoid;border:none;padding:0in"><b><span lang="EL">17.     ΜΟΝΑΔΙΚΟΣ ΑΝΑΓΝΩΡΙΣΤΙΚΟΣ ΚΩΔΙΚΟΣ – ΔΙΣΔΙΑΣΤΑΤΟΣ ΓΡΑΜΜΩΤΟΣ ΚΩΔΙΚΑΣ (2D)</span></b></p> </div><p class="MsoNormal" style="line-height:normal;page-break-after:avoid"></p><p class="MsoNormal" style="line-height:normal"><span lang="EL" style="color:black; background:#D9D9D9">Δισδιάστατος γραμμωτός κώδικας (2D) που φέρει τον περιληφθέντα μοναδικό αναγνωριστικό κωδικό.</span></p><p class="MsoNormal" style="line-height:normal"></p><p class="MsoNormal" style="line-height:normal"></p><div style="border:solid windowtext 1.0pt;padding:1.0pt 4.0pt 1.0pt 4.0pt"> <p class="MsoNormal" style="margin-left:28.35pt;text-indent:-28.35pt;line-height: normal;page-break-after:avoid;border:none;padding:0in"><b><span lang="EL">18.     ΜΟΝΑΔΙΚΟΣ ΑΝΑΓΝΩΡΙΣΤΙΚΟΣ ΚΩΔΙΚΟΣ – ΔΕΔΟΜΕΝΑ ΑΝΑΓΝΩΣΙΜΑ ΑΠΟ ΤΟΝ ΑΝΘΡΩΠΟ</span></b></p> </div><p class="MsoNormal" style="line-height:normal;page-break-after:avoid"></p><p class="MsoNormal" style="line-height:normal;page-break-after:avoid"><span lang="EL">PC</span></p><p class="MsoNormal" style="line-height:normal;page-break-after:avoid"><span lang="EL">SN</span></p><p class="MsoNormal" style="line-height:normal"><span lang="EL">NN</span></p><p class="MsoNormal" style="line-height:normal"></p><span lang="EL" style='font-size:11.0pt;font-family:"Times New Roman",serif; color:black;background:#CCCCCC'><br clear="all" style="page-break-before:always"/> </span><br clear="all" style="page-break-before:always"/><p class="MsoNormal" style="line-height:normal"></p><div style="border:solid windowtext 1.0pt;padding:1.0pt 4.0pt 1.0pt 4.0pt"> <p class="MsoNormal" style="line-height:normal;border:none;padding:0in"><b><span lang="EL">ΕΛΑΧΙΣΤΕΣ ΕΝΔΕΙΞΕΙΣ ΠΟΥ ΠΡΕΠΕΙ ΝΑ ΑΝΑΓΡΑΦΟΝΤΑΙ ΣΤΙΣ ΜΙΚΡΕΣ ΣΤΟΙΧΕΙΩΔΕΙΣ ΣΥΣΚΕΥΑΣΙΕΣ</span></b></p> <p class="MsoNormal" style="line-height:normal;border:none;padding:0in"></p> <p class="MsoNormal" style="line-height:normal;border:none;padding:0in"><b><span lang="EL">ΕΠΙΣΗΜΑΝΣΗ ΦΙΑΛΙΔΙΟΥ</span></b></p> </div><p class="MsoNormal" style="line-height:normal"></p><p class="MsoNormal" style="line-height:normal"></p><div style="border:solid windowtext 1.0pt;padding:1.0pt 4.0pt 1.0pt 4.0pt"> <p class="MsoNormal" style="margin-left:28.35pt;text-indent:-28.35pt;line-height: normal;page-break-after:avoid;border:none;padding:0in"><b><span lang="EL">1.       ΟΝΟΜΑΣΙΑ ΤΟΥ ΦΑΡΜΑΚΕΥΤΙΚΟΥ ΠΡΟΪΟΝΤΟΣ ΚΑΙ ΟΔΟΣ(ΟΙ) ΧΟΡΗΓΗΣΗΣ</span></b></p> </div><p class="MsoNormal" style="margin-left:28.35pt;text-indent:-28.35pt;line-height: normal"></p><p class="MsoNormal" style="line-height:normal"><span lang="EL">ELOCTA 2000 IU κόνις για ενέσιμο</span></p><p class="MsoNormal" style="line-height:normal"></p><p class="MsoNormal" style="line-height:normal"><span lang="EL">efmoroctocog alfa</span></p><p class="MsoNormal" style="line-height:normal"><span lang="EL">ανασυνδυασμένος παράγοντας πήξης VIII</span></p><p class="MsoNormal" style="line-height:normal"><span lang="EL">IV</span></p><p class="MsoNormal" style="line-height:normal"></p><p class="MsoNormal" style="line-height:normal"></p><div style="border:solid windowtext 1.0pt;padding:1.0pt 4.0pt 1.0pt 4.0pt"> <p class="MsoNormal" style="margin-left:28.35pt;text-indent:-28.35pt;line-height: normal;page-break-after:avoid;border:none;padding:0in"><b><span lang="EL">2.       ΤΡΟΠΟΣ ΧΟΡΗΓΗΣΗΣ</span></b></p> </div><p class="MsoNormal" style="line-height:normal"></p><p class="MsoNormal" style="line-height:normal"></p><div style="border:solid windowtext 1.0pt;padding:1.0pt 4.0pt 1.0pt 4.0pt"> <p class="MsoNormal" style="margin-left:28.35pt;text-indent:-28.35pt;line-height: normal;page-break-after:avoid;border:none;padding:0in"><b><span lang="EL">3.       ΗΜΕΡΟΜΗΝΙΑ ΛΗΞΗΣ</span></b></p> </div><p class="MsoNormal" style="line-height:normal"></p><p class="MsoNormal" style="line-height:normal"><span lang="EL">EXP</span></p><p class="MsoNormal" style="line-height:normal"></p><p class="MsoNormal" style="line-height:normal"></p><div style="border:solid windowtext 1.0pt;padding:1.0pt 4.0pt 1.0pt 4.0pt"> <p class="MsoNormal" style="margin-left:28.35pt;text-indent:-28.35pt;line-height: normal;page-break-after:avoid;border:none;padding:0in"><b><span lang="EL">4.       ΑΡΙΘΜΟΣ ΠΑΡΤΙΔΑΣ</span></b></p> </div><p class="MsoNormal" style="margin-right:5.65pt;line-height:normal"></p><p class="MsoNormal" style="margin-right:5.65pt;line-height:normal"><span lang="EL">Lot</span></p><p class="MsoNormal" style="margin-right:5.65pt;line-height:normal"></p><p class="MsoNormal" style="margin-right:5.65pt;line-height:normal"></p><div style="border:solid windowtext 1.0pt;padding:1.0pt 4.0pt 1.0pt 4.0pt"> <p class="MsoNormal" style="margin-left:28.35pt;text-indent:-28.35pt;line-height: normal;page-break-after:avoid;border:none;padding:0in"><b><span lang="EL">5.       ΠΕΡΙΕΧΟΜΕΝΟ ΚΑΤΑ ΒΑΡΟΣ, ΚΑΤ’ ΟΓΚΟ Ή ΚΑΤΑ ΜΟΝΑΔΑ</span></b></p> </div><p class="MsoNormal" style="margin-right:5.65pt;line-height:normal;page-break-after: avoid"></p><p class="MsoNormal" style="line-height:normal"><span lang="EL">2000 IU</span></p><p class="MsoNormal" style="margin-right:5.65pt;line-height:normal"></p><p class="MsoNormal" style="margin-right:5.65pt;line-height:normal"></p><div style="border:solid windowtext 1.0pt;padding:1.0pt 4.0pt 1.0pt 4.0pt"> <p class="MsoNormal" style="margin-left:28.35pt;text-indent:-28.35pt;line-height: normal;page-break-after:avoid;border:none;padding:0in"><b><span lang="EL">6.       ΑΛΛΑ ΣΤΟΙΧΕΙΑ</span></b></p> </div><p class="MsoNormal" style="margin-right:5.65pt;line-height:normal"></p><span lang="EL" style='font-size:11.0pt;font-family:"Times New Roman",serif'><br clear="all" style="page-break-before:always"/> </span><br clear="all" style="page-break-before:always"/><div style="border:solid windowtext 1.0pt;padding:1.0pt 4.0pt 1.0pt 4.0pt"> <p class="MsoNormal" style="line-height:normal;border:none;padding:0in"><b><span lang="EL">ΕΝΔΕΙΞΕΙΣ ΠΟΥ ΠΡΕΠΕΙ ΝΑ ΑΝΑΓΡΑΦΟΝΤΑΙ ΣΤΗΝ ΕΞΩΤΕΡΙΚΗ ΣΥΣΚΕΥΑΣΙΑ</span></b></p> <p class="MsoNormal" style="margin-left:28.35pt;text-indent:-28.35pt;line-height: normal;border:none;padding:0in"></p> <p class="MsoNormal" style="line-height:normal;border:none;padding:0in"><b><span lang="EL">ΧΑΡΤΙΝΟ ΚΟΥΤΙ</span></b></p> </div><p class="MsoNormal" style="line-height:normal"></p><p class="MsoNormal" style="line-height:normal"></p><div style="border:solid windowtext 1.0pt;padding:1.0pt 4.0pt 1.0pt 4.0pt"> <p class="MsoNormal" style="margin-left:28.35pt;text-indent:-28.35pt;line-height: normal;page-break-after:avoid;border:none;padding:0in"><b><span lang="EL">1.       ΟΝΟΜΑΣΙΑ ΤΟΥ ΦΑΡΜΑΚΕΥΤΙΚΟΥ ΠΡΟΪΟΝΤΟΣ</span></b></p> </div><p class="MsoNormal" style="line-height:normal"></p><p class="MsoNormal" style="line-height:normal"><span lang="EL">ELOCTA 3000 IU κόνις και διαλύτης για ενέσιμο διάλυμα</span></p><p class="MsoNormal" style="line-height:normal"></p><p class="MsoNormal" style="line-height:normal"><span lang="EL">efmoroctocog alfa </span></p><p class="MsoNormal" style="line-height:normal"><span lang="EL">(ανασυνδυασμένος παράγοντας πήξης VIII, πρωτεΐνη σύντηξης Fc)</span></p><p class="MsoNormal" style="line-height:normal"></p><p class="MsoNormal" style="line-height:normal"></p><div style="border:solid windowtext 1.0pt;padding:1.0pt 4.0pt 1.0pt 4.0pt"> <p class="MsoNormal" style="margin-left:28.35pt;text-indent:-28.35pt;line-height: normal;page-break-after:avoid;border:none;padding:0in"><b><span lang="EL">2.       ΣΥΝΘΕΣΗ ΣΕ ΔΡΑΣΤΙΚΗ(ΕΣ) ΟΥΣΙΑ(ΕΣ)</span></b></p> </div><p class="MsoNormal" style="line-height:normal"></p><p class="MsoNormal" style="line-height:normal"><span lang="EL">1 φιαλίδιο κόνεως περιέχει </span><span lang="EL">3000 IU efmoroctocog alfa (περ. 1.000 IU/ml μετά την ανασύσταση)</span></p><p class="MsoNormal" style="line-height:normal"></p><p class="MsoNormal" style="line-height:normal"></p><div style="border:solid windowtext 1.0pt;padding:1.0pt 4.0pt 1.0pt 4.0pt"> <p class="MsoNormal" style="margin-left:28.35pt;text-indent:-28.35pt;line-height: normal;page-break-after:avoid;border:none;padding:0in"><b><span lang="EL">3.       ΚΑΤΑΛΟΓΟΣ ΕΚΔΟΧΩΝ</span></b></p> </div><p class="MsoNormal" style="line-height:normal;page-break-after:avoid"></p><p class="MsoNormal" style="line-height:normal;text-autospace:none"><span lang="EL" style="color:black;background:#BFBFBF">Κόνις:</span><span lang="EL"> σακχαρόζη, χλωριούχο νάτριο, ιστιδίνη, δίυδρο χλωριούχο ασβέστιο, πολυσορβικό 20, υδροξείδιο του νατρίου, υδροχλωρικό οξύ.</span></p><p class="MsoNormal" style="line-height:normal;text-autospace:none"></p><p class="MsoNormal" style="line-height:normal;text-autospace:none"><span lang="EL">Διαλύτης: ύδωρ για ενέσιμα</span></p><p class="MsoNormal" style="line-height:normal;text-autospace:none"></p><p class="MsoNormal" style="line-height:normal;text-autospace:none"></p><div style="border:solid windowtext 1.0pt;padding:1.0pt 4.0pt 1.0pt 4.0pt"> <p class="MsoNormal" style="margin-left:28.35pt;text-indent:-28.35pt;line-height: normal;page-break-after:avoid;border:none;padding:0in"><b><span lang="EL">4.       ΦΑΡΜΑΚΟΤΕΧΝΙΚΗ ΜΟΡΦΗ ΚΑΙ ΠΕΡΙΕΧΟΜΕΝΟ</span></b></p> </div><p class="MsoNormal" style="line-height:normal;page-break-after:avoid"></p><p class="MsoNormal" style="line-height:normal;page-break-after:avoid"><span lang="EL" style="color:black;background:#BFBFBF">Κόνις και διαλύτης για ενέσιμο διάλυμα</span></p><p class="MsoNormal" style="line-height:normal;page-break-after:avoid"></p><p class="MsoNormal" style="line-height:normal"><span lang="EL">Περιεχόμενο: 1 φιαλίδιο κόνεως, 3 ml διαλύτη σε προγεμισμένη σύριγγα, 1 ράβδος εμβόλου, 1 προσαρμογέας φιαλιδίου, 1 σετ έγχυσης, 2 ταμπόν με οινόπνευμα, 2 έμπλαστρα, 1 γάζα.</span></p><p class="MsoNormal" style="line-height:normal"></p><p class="MsoNormal" style="line-height:normal"></p><div style="border:solid windowtext 1.0pt;padding:1.0pt 4.0pt 1.0pt 4.0pt"> <p class="MsoNormal" style="margin-left:28.35pt;text-indent:-28.35pt;line-height: normal;page-break-after:avoid;border:none;padding:0in"><b><span lang="EL">5.       ΤΡΟΠΟΣ ΚΑΙ ΟΔΟΣ(ΟΙ) ΧΟΡΗΓΗΣΗΣ</span></b></p> </div><p class="MsoNormal" style="line-height:normal"></p><p class="MsoNormal" style="line-height:normal"><span lang="EL">Ενδοφλέβια χρήση, μετά την ανασύσταση.</span></p><p class="MsoNormal" style="line-height:normal"><span lang="EL">Διαβάστε το φύλλο οδηγιών χρήσης πριν από τη χρήση.</span></p><p class="MsoNormal" style="line-height:normal"></p><p class="MsoNormal" style="line-height:normal"><span lang="EL">Ένα βίντεο οδηγιών για την προετοιμασία και χορήγηση του ELOCTA είναι διαθέσιμο σαρώνοντας τον κωδικό QR με ένα smartphone </span><span lang="EL">ή μέσω του δικτυακού τόπου</span><span lang="EL">.</span></p><p class="MsoNormal" style="line-height:normal"></p><p class="MsoNormal" style="line-height:normal"><span lang="EL" style="color:black; background:#BFBFBF">Κωδικός QR που θα συμπεριληφθεί+</span><span lang="EN-GB"><a href="http://www.eloct-instructions.com/"><span lang="EL">http://www.elocta-instructions.com</span></a></span></p><p class="MsoNormal" style="line-height:normal"></p><p class="MsoNormal" style="line-height:normal"></p><div style="border:solid windowtext 1.0pt;padding:1.0pt 4.0pt 1.0pt 4.0pt"> <p class="MsoNormal" style="margin-left:28.35pt;text-indent:-28.35pt;line-height: normal;page-break-after:avoid;border:none;padding:0in"><b><span lang="EL">6.       ΕΙΔΙΚΗ ΠΡΟΕΙΔΟΠΟΙΗΣΗ ΣΥΜΦΩΝΑ ΜΕ ΤΗΝ ΟΠΟΙΑ ΤΟ ΦΑΡΜΑΚΕΥΤΙΚΟ ΠΡΟΪΟΝ ΠΡΕΠΕΙ ΝΑ ΦΥΛΑΣΣΕΤΑΙ ΣΕ ΘΕΣΗ ΤΗΝ ΟΠΟΙΑ ΔΕΝ ΒΛΕΠΟΥΝ ΚΑΙ ΔΕΝ ΠΡΟΣΕΓΓΙΖΟΥΝ ΤΑ ΠΑΙΔΙΑ</span></b></p> </div><p class="MsoNormal" style="line-height:normal;page-break-after:avoid"></p><p class="MsoNormal" style="line-height:normal"><span lang="EL">Να φυλάσσεται σε θέση, την οποία δεν βλέπουν και δεν προσεγγίζουν τα παιδιά.</span></p><p class="MsoNormal" style="line-height:normal"></p><p class="MsoNormal" style="line-height:normal"></p><div style="border:solid windowtext 1.0pt;padding:1.0pt 4.0pt 1.0pt 4.0pt"> <p class="MsoNormal" style="margin-left:28.35pt;text-indent:-28.35pt;line-height: normal;page-break-after:avoid;border:none;padding:0in"><b><span lang="EL">7.       ΑΛΛΗ(ΕΣ) ΕΙΔΙΚΗ(ΕΣ) ΠΡΟΕΙΔΟΠΟΙΗΣΗ(ΕΙΣ), ΕΑΝ ΕΙΝΑΙ ΑΠΑΡΑΙΤΗΤΗ(ΕΣ)</span></b></p> </div><p class="MsoNormal" style="line-height:normal"></p><p class="MsoNormal" style="line-height:normal"></p><div style="border:solid windowtext 1.0pt;padding:1.0pt 4.0pt 1.0pt 4.0pt"> <p class="MsoNormal" style="margin-left:28.35pt;text-indent:-28.35pt;line-height: normal;page-break-after:avoid;border:none;padding:0in"><b><span lang="EL">8.       ΗΜΕΡΟΜΗΝΙΑ ΛΗΞΗΣ</span></b></p> </div><p class="MsoNormal" style="line-height:normal"></p><p class="MsoNormal" style="line-height:normal"><span lang="EL">EXP</span></p><p class="MsoNormal" style="line-height:normal"></p><p class="MsoNormal" style="line-height:normal"><span lang="EL">Χρησιμοποιήστε εντός 6 ωρών μετά την ανασύσταση.</span></p><p class="MsoNormal" style="line-height:normal"></p><p class="MsoNormal" style="line-height:normal"></p><div style="border:solid windowtext 1.0pt;padding:1.0pt 4.0pt 1.0pt 4.0pt"> <p class="MsoNormal" style="margin-left:28.35pt;text-indent:-28.35pt;line-height: normal;page-break-after:avoid;border:none;padding:0in"><b><span lang="EL">9.       ΕΙΔΙΚΕΣ ΣΥΝΘΗΚΕΣ ΦΥΛΑΞΗΣ</span></b></p> </div><p class="MsoNormal" style="line-height:normal;page-break-after:avoid"></p><p class="MsoNormal" style="line-height:normal"><span lang="EL">Φυλάσσετε σε ψυγείο.</span></p><p class="MsoNormal" style="line-height:normal"><span lang="EL">Μην καταψύχετε.</span></p><p class="MsoNormal" style="line-height:normal"><span lang="EL">Φυλάσσετε το φιαλίδιο στο εξωτερικό κουτί για να προστατεύεται από το φως.</span></p><p class="MsoNormal" style="line-height:normal"><span lang="EL">Μπορεί να φυλάσσεται σε θερμοκρασία δωματίου (μέχρι 30°C) για μια μεμονωμένη περίοδο μέχρι 6 μήνες. Δεν πρέπει να επιστραφεί στο ψυγείο μετά τη φύλαξη σε θερμοκρασία δωματίου. Ημερομηνία που βγήκε από το ψυγείο:</span></p><p class="MsoNormal" style="line-height:normal"></p><p class="MsoNormal" style="margin-left:28.35pt;text-indent:-28.35pt;line-height: normal"></p><div style="border:solid windowtext 1.0pt;padding:1.0pt 4.0pt 1.0pt 4.0pt"> <p class="MsoNormal" style="margin-left:28.35pt;text-indent:-28.35pt;line-height: normal;page-break-after:avoid;border:none;padding:0in"><b><span lang="EL">10.     ΙΔΙΑΙΤΕΡΕΣ ΠΡΟΦΥΛΑΞΕΙΣ ΓΙΑ ΤΗΝ ΑΠΟΡΡΙΨΗ ΤΩΝ ΜΗ ΧΡΗΣΙΜΟΠΟΙΗΘΕΝΤΩΝ ΦΑΡΜΑΚΕΥΤΙΚΩΝ ΠΡΟΪΟΝΤΩΝ Ή ΤΩΝ ΥΠΟΛΕΙΜΜΑΤΩΝ ΠΟΥ ΠΡΟΕΡΧΟΝΤΑΙ ΑΠΟ ΑΥΤΑ, ΕΦΟΣΟΝ ΑΠΑΙΤΕΙΤΑΙ</span></b></p> </div><p class="MsoNormal" style="line-height:normal;page-break-after:avoid"></p><p class="MsoNormal" style="line-height:normal"></p><div style="border:solid windowtext 1.0pt;padding:1.0pt 4.0pt 1.0pt 4.0pt"> <p class="MsoNormal" style="margin-left:28.35pt;text-indent:-28.35pt;line-height: normal;page-break-after:avoid;border:none;padding:0in"><b><span lang="EL">11.     ΟΝΟΜΑ ΚΑΙ ΔΙΕΥΘΥΝΣΗ ΚΑΤΟΧΟΥ ΤΗΣ ΑΔΕΙΑΣ ΚΥΚΛΟΦΟΡΙΑΣ</span></b></p> </div><p class="MsoNormal" style="line-height:normal;page-break-after:avoid"></p><p class="MsoNormal" style="line-height:normal"><span lang="EL">Swedish Orphan Biovitrum AB (publ)</span></p><p class="MsoNormal" style="line-height:normal"><span lang="EL">SE-112 76 Stockholm</span></p><p class="MsoNormal" style="line-height:normal"><span lang="EL">Σουηδία</span></p><p class="MsoNormal" style="line-height:normal"></p><p class="MsoNormal" style="line-height:normal"></p><div style="border:solid windowtext 1.0pt;padding:1.0pt 4.0pt 1.0pt 4.0pt"> <p class="MsoNormal" style="margin-left:28.35pt;text-indent:-28.35pt;line-height: normal;page-break-after:avoid;border:none;padding:0in"><b><span lang="EL">12.     ΑΡΙΘΜΟΣ(ΟΙ) ΑΔΕΙΑΣ ΚΥΚΛΟΦΟΡΙΑΣ</span></b></p> </div><p class="MsoNormal" style="line-height:normal"></p><p class="MsoNormal" style="line-height:normal"><span lang="EL">EU/1/15/1046/007</span></p><p class="MsoNormal" style="line-height:normal"></p><p class="MsoNormal" style="line-height:normal"></p><div style="border:solid windowtext 1.0pt;padding:1.0pt 4.0pt 1.0pt 4.0pt"> <p class="MsoNormal" style="margin-left:28.35pt;text-indent:-28.35pt;line-height: normal;page-break-after:avoid;border:none;padding:0in"><b><span lang="EL">13.     ΑΡΙΘΜΟΣ ΠΑΡΤΙΔΑΣ</span></b></p> </div><p class="MsoNormal" style="line-height:normal"></p><p class="MsoNormal" style="line-height:normal"><span lang="EL">Lot</span></p><p class="MsoNormal" style="line-height:normal"></p><p class="MsoNormal" style="line-height:normal"></p><div style="border:solid windowtext 1.0pt;padding:1.0pt 4.0pt 1.0pt 4.0pt"> <p class="MsoNormal" style="margin-left:28.35pt;text-indent:-28.35pt;line-height: normal;page-break-after:avoid;border:none;padding:0in"><b><span lang="EL">14.     ΓΕΝΙΚΗ ΚΑΤΑΤΑΞΗ ΓΙΑ ΤΗ ΔΙΑΘΕΣΗ</span></b></p> </div><p class="MsoNormal" style="line-height:normal"></p><p class="MsoNormal" style="line-height:normal"></p><div style="border:solid windowtext 1.0pt;padding:1.0pt 4.0pt 1.0pt 4.0pt"> <p class="MsoNormal" style="margin-left:28.35pt;text-indent:-28.35pt;line-height: normal;page-break-after:avoid;border:none;padding:0in"><b><span lang="EL">15.     ΟΔΗΓΙΕΣ ΧΡΗΣΗΣ</span></b></p> </div><p class="MsoNormal" style="line-height:normal"></p><p class="MsoNormal" style="line-height:normal"></p><p class="MsoNormal" style="line-height:normal"></p><div style="border:solid windowtext 1.0pt;padding:1.0pt 4.0pt 1.0pt 4.0pt"> <p class="MsoNormal" style="margin-left:28.35pt;text-indent:-28.35pt;line-height: normal;page-break-after:avoid;border:none;padding:0in"><b><span lang="EL">16.     ΠΛΗΡΟΦΟΡΙΕΣ ΣΕ BRAILLE</span></b></p> </div><p class="MsoNormal" style="line-height:normal;page-break-after:avoid"></p><p class="MsoNormal" style="line-height:normal"><span lang="EL">ELOCTA 3000</span></p><p class="MsoNormal" style="line-height:normal"></p><p class="MsoNormal" style="line-height:normal"></p><div style="border:solid windowtext 1.0pt;padding:1.0pt 4.0pt 1.0pt 4.0pt"> <p class="MsoNormal" style="margin-left:28.35pt;text-indent:-28.35pt;line-height: normal;page-break-after:avoid;border:none;padding:0in"><b><span lang="EL">17.     ΜΟΝΑΔΙΚΟΣ ΑΝΑΓΝΩΡΙΣΤΙΚΟΣ ΚΩΔΙΚΟΣ – ΔΙΣΔΙΑΣΤΑΤΟΣ ΓΡΑΜΜΩΤΟΣ ΚΩΔΙΚΑΣ (2D)</span></b></p> </div><p class="MsoNormal" style="line-height:normal;page-break-after:avoid"></p><p class="MsoNormal" style="line-height:normal"><span lang="EL" style="color:black; background:#D9D9D9">Δισδιάστατος γραμμωτός κώδικας (2D) που φέρει τον περιληφθέντα μοναδικό αναγνωριστικό κωδικό.</span></p><p class="MsoNormal" style="line-height:normal"></p><p class="MsoNormal" style="line-height:normal"></p><div style="border:solid windowtext 1.0pt;padding:1.0pt 4.0pt 1.0pt 4.0pt"> <p class="MsoNormal" style="margin-left:28.35pt;text-indent:-28.35pt;line-height: normal;page-break-after:avoid;border:none;padding:0in"><b><span lang="EL">18.     ΜΟΝΑΔΙΚΟΣ ΑΝΑΓΝΩΡΙΣΤΙΚΟΣ ΚΩΔΙΚΟΣ – ΔΕΔΟΜΕΝΑ ΑΝΑΓΝΩΣΙΜΑ ΑΠΟ ΤΟΝ ΑΝΘΡΩΠΟ</span></b></p> </div><p class="MsoNormal" style="line-height:normal;page-break-after:avoid"></p><p class="MsoNormal" style="line-height:normal;page-break-after:avoid"><span lang="EL">PC</span></p><p class="MsoNormal" style="line-height:normal;page-break-after:avoid"><span lang="EL">SN</span></p><p class="MsoNormal" style="line-height:normal"><span lang="EL">NN</span></p><p class="MsoNormal" style="line-height:normal"></p><span lang="EL" style='font-size:11.0pt;font-family:"Times New Roman",serif; color:black;background:#CCCCCC'><br clear="all" style="page-break-before:always"/> </span><br clear="all" style="page-break-before:always"/><p class="MsoNormal" style="line-height:normal"></p><div style="border:solid windowtext 1.0pt;padding:1.0pt 4.0pt 1.0pt 4.0pt"> <p class="MsoNormal" style="line-height:normal;border:none;padding:0in"><b><span lang="EL">ΕΛΑΧΙΣΤΕΣ ΕΝΔΕΙΞΕΙΣ ΠΟΥ ΠΡΕΠΕΙ ΝΑ ΑΝΑΓΡΑΦΟΝΤΑΙ ΣΤΙΣ ΜΙΚΡΕΣ ΣΤΟΙΧΕΙΩΔΕΙΣ ΣΥΣΚΕΥΑΣΙΕΣ</span></b></p> <p class="MsoNormal" style="line-height:normal;border:none;padding:0in"></p> <p class="MsoNormal" style="line-height:normal;border:none;padding:0in"><b><span lang="EL">ΕΠΙΣΗΜΑΝΣΗ ΦΙΑΛΙΔΙΟΥ</span></b></p> </div><p class="MsoNormal" style="line-height:normal"></p><p class="MsoNormal" style="line-height:normal"></p><div style="border:solid windowtext 1.0pt;padding:1.0pt 4.0pt 1.0pt 4.0pt"> <p class="MsoNormal" style="margin-left:28.35pt;text-indent:-28.35pt;line-height: normal;page-break-after:avoid;border:none;padding:0in"><b><span lang="EL">1.       ΟΝΟΜΑΣΙΑ ΤΟΥ ΦΑΡΜΑΚΕΥΤΙΚΟΥ ΠΡΟΪΟΝΤΟΣ ΚΑΙ ΟΔΟΣ(ΟΙ) ΧΟΡΗΓΗΣΗΣ</span></b></p> </div><p class="MsoNormal" style="margin-left:28.35pt;text-indent:-28.35pt;line-height: normal"></p><p class="MsoNormal" style="line-height:normal"><span lang="EL">ELOCTA 3000 IU κόνις για ενέσιμο</span></p><p class="MsoNormal" style="line-height:normal"></p><p class="MsoNormal" style="line-height:normal"><span lang="EL">efmoroctocog alfa</span></p><p class="MsoNormal" style="line-height:normal"><span lang="EL">ανασυνδυασμένος παράγοντας πήξης VIII</span></p><p class="MsoNormal" style="line-height:normal"><span lang="EL">IV</span></p><p class="MsoNormal" style="line-height:normal"></p><p class="MsoNormal" style="line-height:normal"></p><div style="border:solid windowtext 1.0pt;padding:1.0pt 4.0pt 1.0pt 4.0pt"> <p class="MsoNormal" style="margin-left:28.35pt;text-indent:-28.35pt;line-height: normal;page-break-after:avoid;border:none;padding:0in"><b><span lang="EL">2.       ΤΡΟΠΟΣ ΧΟΡΗΓΗΣΗΣ</span></b></p> </div><p class="MsoNormal" style="line-height:normal"></p><p class="MsoNormal" style="line-height:normal"></p><div style="border:solid windowtext 1.0pt;padding:1.0pt 4.0pt 1.0pt 4.0pt"> <p class="MsoNormal" style="margin-left:28.35pt;text-indent:-28.35pt;line-height: normal;page-break-after:avoid;border:none;padding:0in"><b><span lang="EL">3.       ΗΜΕΡΟΜΗΝΙΑ ΛΗΞΗΣ</span></b></p> </div><p class="MsoNormal" style="line-height:normal"></p><p class="MsoNormal" style="line-height:normal"><span lang="EL">EXP</span></p><p class="MsoNormal" style="line-height:normal"></p><p class="MsoNormal" style="line-height:normal"></p><div style="border:solid windowtext 1.0pt;padding:1.0pt 4.0pt 1.0pt 4.0pt"> <p class="MsoNormal" style="margin-left:28.35pt;text-indent:-28.35pt;line-height: normal;page-break-after:avoid;border:none;padding:0in"><b><span lang="EL">4.       ΑΡΙΘΜΟΣ ΠΑΡΤΙΔΑΣ</span></b></p> </div><p class="MsoNormal" style="margin-right:5.65pt;line-height:normal"></p><p class="MsoNormal" style="margin-right:5.65pt;line-height:normal"><span lang="EL">Lot</span></p><p class="MsoNormal" style="margin-right:5.65pt;line-height:normal"></p><p class="MsoNormal" style="margin-right:5.65pt;line-height:normal"></p><div style="border:solid windowtext 1.0pt;padding:1.0pt 4.0pt 1.0pt 4.0pt"> <p class="MsoNormal" style="margin-left:28.35pt;text-indent:-28.35pt;line-height: normal;page-break-after:avoid;border:none;padding:0in"><b><span lang="EL">5.       ΠΕΡΙΕΧΟΜΕΝΟ ΚΑΤΑ ΒΑΡΟΣ, ΚΑΤ’ ΟΓΚΟ Ή ΚΑΤΑ ΜΟΝΑΔΑ</span></b></p> </div><p class="MsoNormal" style="margin-right:5.65pt;line-height:normal;page-break-after: avoid"></p><p class="MsoNormal" style="line-height:normal"><span lang="EL">3000 IU</span></p><p class="MsoNormal" style="margin-right:5.65pt;line-height:normal"></p><p class="MsoNormal" style="margin-right:5.65pt;line-height:normal"></p><div style="border:solid windowtext 1.0pt;padding:1.0pt 4.0pt 1.0pt 4.0pt"> <p class="MsoNormal" style="margin-left:28.35pt;text-indent:-28.35pt;line-height: normal;page-break-after:avoid;border:none;padding:0in"><b><span lang="EL">6.       ΑΛΛΑ ΣΤΟΙΧΕΙΑ</span></b></p> </div><p class="MsoNormal" style="margin-right:5.65pt;line-height:normal"></p><span lang="EL" style='font-size:11.0pt;font-family:"Times New Roman",serif'><br clear="all" style="page-break-before:always"/> </span><br clear="all" style="page-break-before:always"/><div style="border:solid windowtext 1.0pt;padding:1.0pt 4.0pt 1.0pt 4.0pt"> <p class="MsoNormal" style="line-height:normal;border:none;padding:0in"><b><span lang="EL">ΕΝΔΕΙΞΕΙΣ ΠΟΥ ΠΡΕΠΕΙ ΝΑ ΑΝΑΓΡΑΦΟΝΤΑΙ ΣΤΗΝ ΕΞΩΤΕΡΙΚΗ ΣΥΣΚΕΥΑΣΙΑ</span></b></p> <p class="MsoNormal" style="margin-left:28.35pt;text-indent:-28.35pt;line-height: normal;border:none;padding:0in"></p> <p class="MsoNormal" style="line-height:normal;border:none;padding:0in"><b><span lang="EL">ΧΑΡΤΙΝΟ ΚΟΥΤΙ</span></b></p> </div><p class="MsoNormal" style="line-height:normal"></p><p class="MsoNormal" style="line-height:normal"></p><div style="border:solid windowtext 1.0pt;padding:1.0pt 4.0pt 1.0pt 4.0pt"> <p class="MsoNormal" style="margin-left:28.35pt;text-indent:-28.35pt;line-height: normal;page-break-after:avoid;border:none;padding:0in"><b><span lang="EL">1.       ΟΝΟΜΑΣΙΑ ΤΟΥ ΦΑΡΜΑΚΕΥΤΙΚΟΥ ΠΡΟΪΟΝΤΟΣ</span></b></p> </div><p class="MsoNormal" style="line-height:normal"></p><p class="MsoNormal" style="line-height:normal"><span lang="EL">ELOCTA 4000 IU κόνις και διαλύτης για ενέσιμο διάλυμα</span></p><p class="MsoNormal" style="line-height:normal"></p><p class="MsoNormal" style="line-height:normal"><span lang="EL">efmoroctocog alfa </span></p><p class="MsoNormal" style="line-height:normal"><span lang="EL">(ανασυνδυασμένος παράγοντας πήξης VIII, πρωτεΐνη σύντηξης Fc)</span></p><p class="MsoNormal" style="line-height:normal"></p><p class="MsoNormal" style="line-height:normal"></p><div style="border:solid windowtext 1.0pt;padding:1.0pt 4.0pt 1.0pt 4.0pt"> <p class="MsoNormal" style="margin-left:28.35pt;text-indent:-28.35pt;line-height: normal;page-break-after:avoid;border:none;padding:0in"><b><span lang="EL">2.       ΣΥΝΘΕΣΗ ΣΕ ΔΡΑΣΤΙΚΗ(ΕΣ) ΟΥΣΙΑ(ΕΣ)</span></b></p> </div><p class="MsoNormal" style="line-height:normal"></p><p class="MsoNormal" style="line-height:normal"><span lang="EL">1 φιαλίδιο κόνεως περιέχει </span><span lang="EL">4000 IU efmoroctocog alfa (περ. 1.333 IU/ml μετά την ανασύσταση)</span></p><p class="MsoNormal" style="line-height:normal"></p><p class="MsoNormal" style="line-height:normal"></p><div style="border:solid windowtext 1.0pt;padding:1.0pt 4.0pt 1.0pt 4.0pt"> <p class="MsoNormal" style="margin-left:28.35pt;text-indent:-28.35pt;line-height: normal;page-break-after:avoid;border:none;padding:0in"><b><span lang="EL">3.       ΚΑΤΑΛΟΓΟΣ ΕΚΔΟΧΩΝ</span></b></p> </div><p class="MsoNormal" style="line-height:normal;page-break-after:avoid"></p><p class="MsoNormal" style="line-height:normal;text-autospace:none"><span lang="EL" style="color:black;background:#BFBFBF">Κόνις:</span><span lang="EL"> σακχαρόζη, χλωριούχο νάτριο, ιστιδίνη, δίυδρο χλωριούχο ασβέστιο, πολυσορβικό 20, υδροξείδιο του νατρίου, υδροχλωρικό οξύ.</span></p><p class="MsoNormal" style="line-height:normal;text-autospace:none"></p><p class="MsoNormal" style="line-height:normal;text-autospace:none"><span lang="EL">Διαλύτης: ύδωρ για ενέσιμα</span></p><p class="MsoNormal" style="line-height:normal;text-autospace:none"></p><p class="MsoNormal" style="line-height:normal;text-autospace:none"></p><div style="border:solid windowtext 1.0pt;padding:1.0pt 4.0pt 1.0pt 4.0pt"> <p class="MsoNormal" style="margin-left:28.35pt;text-indent:-28.35pt;line-height: normal;page-break-after:avoid;border:none;padding:0in"><b><span lang="EL">4.       ΦΑΡΜΑΚΟΤΕΧΝΙΚΗ ΜΟΡΦΗ ΚΑΙ ΠΕΡΙΕΧΟΜΕΝΟ</span></b></p> </div><p class="MsoNormal" style="line-height:normal;page-break-after:avoid"></p><p class="MsoNormal" style="line-height:normal;page-break-after:avoid"><span lang="EL" style="color:black;background:#BFBFBF">Κόνις και διαλύτης για ενέσιμο διάλυμα</span></p><p class="MsoNormal" style="line-height:normal;page-break-after:avoid"></p><p class="MsoNormal" style="line-height:normal"><span lang="EL">Περιεχόμενο: 1 φιαλίδιο κόνεως, 3 ml διαλύτη σε προγεμισμένη σύριγγα, 1 ράβδος εμβόλου, 1 προσαρμογέας φιαλιδίου, 1 σετ έγχυσης, 2 ταμπόν με οινόπνευμα, 2 έμπλαστρα, 1 γάζα.</span></p><p class="MsoNormal" style="line-height:normal"></p><p class="MsoNormal" style="line-height:normal"></p><div style="border:solid windowtext 1.0pt;padding:1.0pt 4.0pt 1.0pt 4.0pt"> <p class="MsoNormal" style="margin-left:28.35pt;text-indent:-28.35pt;line-height: normal;page-break-after:avoid;border:none;padding:0in"><b><span lang="EL">5.       ΤΡΟΠΟΣ ΚΑΙ ΟΔΟΣ(ΟΙ) ΧΟΡΗΓΗΣΗΣ</span></b></p> </div><p class="MsoNormal" style="line-height:normal"></p><p class="MsoNormal" style="line-height:normal"><span lang="EL">Ενδοφλέβια χρήση, μετά την ανασύσταση.</span></p><p class="MsoNormal" style="line-height:normal"><span lang="EL">Διαβάστε το φύλλο οδηγιών χρήσης πριν από τη χρήση.</span></p><p class="MsoNormal" style="line-height:normal"></p><p class="MsoNormal" style="line-height:normal"><span lang="EL">Ένα βίντεο οδηγιών για την προετοιμασία και χορήγηση του ELOCTA είναι διαθέσιμο σαρώνοντας τον κωδικό QR με ένα smartphone </span><span lang="EL">ή μέσω του δικτυακού τόπου</span><span lang="EL">.</span></p><p class="MsoNormal" style="line-height:normal"></p><p class="MsoNormal" style="line-height:normal"><span lang="EL" style="color:black; background:#BFBFBF">Κωδικός QR που θα συμπεριληφθεί+</span><span lang="EN-GB"><a href="http://www.eloct-instructions.com/"><span lang="EL">http://www.elocta-instructions.com</span></a></span></p><p class="MsoNormal" style="line-height:normal"></p><p class="MsoNormal" style="line-height:normal"></p><div style="border:solid windowtext 1.0pt;padding:1.0pt 4.0pt 1.0pt 4.0pt"> <p class="MsoNormal" style="margin-left:28.35pt;text-indent:-28.35pt;line-height: normal;page-break-after:avoid;border:none;padding:0in"><b><span lang="EL">6.       ΕΙΔΙΚΗ ΠΡΟΕΙΔΟΠΟΙΗΣΗ ΣΥΜΦΩΝΑ ΜΕ ΤΗΝ ΟΠΟΙΑ ΤΟ ΦΑΡΜΑΚΕΥΤΙΚΟ ΠΡΟΪΟΝ ΠΡΕΠΕΙ ΝΑ ΦΥΛΑΣΣΕΤΑΙ ΣΕ ΘΕΣΗ ΤΗΝ ΟΠΟΙΑ ΔΕΝ ΒΛΕΠΟΥΝ ΚΑΙ ΔΕΝ ΠΡΟΣΕΓΓΙΖΟΥΝ ΤΑ ΠΑΙΔΙΑ</span></b></p> </div><p class="MsoNormal" style="line-height:normal;page-break-after:avoid"></p><p class="MsoNormal" style="line-height:normal"><span lang="EL">Να φυλάσσεται σε θέση, την οποία δεν βλέπουν και δεν προσεγγίζουν τα παιδιά.</span></p><p class="MsoNormal" style="line-height:normal"></p><p class="MsoNormal" style="line-height:normal"></p><div style="border:solid windowtext 1.0pt;padding:1.0pt 4.0pt 1.0pt 4.0pt"> <p class="MsoNormal" style="margin-left:28.35pt;text-indent:-28.35pt;line-height: normal;page-break-after:avoid;border:none;padding:0in"><b><span lang="EL">7.       ΑΛΛΗ(ΕΣ) ΕΙΔΙΚΗ(ΕΣ) ΠΡΟΕΙΔΟΠΟΙΗΣΗ(ΕΙΣ), ΕΑΝ ΕΙΝΑΙ ΑΠΑΡΑΙΤΗΤΗ(ΕΣ)</span></b></p> </div><p class="MsoNormal" style="line-height:normal"></p><p class="MsoNormal" style="line-height:normal"></p><div style="border:solid windowtext 1.0pt;padding:1.0pt 4.0pt 1.0pt 4.0pt"> <p class="MsoNormal" style="margin-left:28.35pt;text-indent:-28.35pt;line-height: normal;page-break-after:avoid;border:none;padding:0in"><b><span lang="EL">8.       ΗΜΕΡΟΜΗΝΙΑ ΛΗΞΗΣ</span></b></p> </div><p class="MsoNormal" style="line-height:normal"></p><p class="MsoNormal" style="line-height:normal"><span lang="EL">EXP</span></p><p class="MsoNormal" style="line-height:normal"></p><p class="MsoNormal" style="line-height:normal"><span lang="EL">Χρησιμοποιήστε εντός 6 ωρών μετά την ανασύσταση.</span></p><p class="MsoNormal" style="line-height:normal"></p><p class="MsoNormal" style="line-height:normal"></p><div style="border:solid windowtext 1.0pt;padding:1.0pt 4.0pt 1.0pt 4.0pt"> <p class="MsoNormal" style="margin-left:28.35pt;text-indent:-28.35pt;line-height: normal;page-break-after:avoid;border:none;padding:0in"><b><span lang="EL">9.       ΕΙΔΙΚΕΣ ΣΥΝΘΗΚΕΣ ΦΥΛΑΞΗΣ</span></b></p> </div><p class="MsoNormal" style="line-height:normal;page-break-after:avoid"></p><p class="MsoNormal" style="line-height:normal"><span lang="EL">Φυλάσσετε σε ψυγείο.</span></p><p class="MsoNormal" style="line-height:normal"><span lang="EL">Μην καταψύχετε.</span></p><p class="MsoNormal" style="line-height:normal"><span lang="EL">Φυλάσσετε το φιαλίδιο στο εξωτερικό κουτί για να προστατεύεται από το φως.</span></p><p class="MsoNormal" style="line-height:normal"><span lang="EL">Μπορεί να φυλάσσεται σε θερμοκρασία δωματίου (μέχρι 30°C) για μια μεμονωμένη περίοδο μέχρι 6 μήνες. Δεν πρέπει να επιστραφεί στο ψυγείο μετά τη φύλαξη σε θερμοκρασία δωματίου. Ημερομηνία που βγήκε από το ψυγείο:</span></p><p class="MsoNormal" style="line-height:normal"></p><p class="MsoNormal" style="margin-left:28.35pt;text-indent:-28.35pt;line-height: normal"></p><div style="border:solid windowtext 1.0pt;padding:1.0pt 4.0pt 1.0pt 4.0pt"> <p class="MsoNormal" style="margin-left:28.35pt;text-indent:-28.35pt;line-height: normal;page-break-after:avoid;border:none;padding:0in"><b><span lang="EL">10.     ΙΔΙΑΙΤΕΡΕΣ ΠΡΟΦΥΛΑΞΕΙΣ ΓΙΑ ΤΗΝ ΑΠΟΡΡΙΨΗ ΤΩΝ ΜΗ ΧΡΗΣΙΜΟΠΟΙΗΘΕΝΤΩΝ ΦΑΡΜΑΚΕΥΤΙΚΩΝ ΠΡΟΪΟΝΤΩΝ Ή ΤΩΝ ΥΠΟΛΕΙΜΜΑΤΩΝ ΠΟΥ ΠΡΟΕΡΧΟΝΤΑΙ ΑΠΟ ΑΥΤΑ, ΕΦΟΣΟΝ ΑΠΑΙΤΕΙΤΑΙ</span></b></p> </div><p class="MsoNormal" style="line-height:normal;page-break-after:avoid"></p><p class="MsoNormal" style="line-height:normal"></p><div style="border:solid windowtext 1.0pt;padding:1.0pt 4.0pt 1.0pt 4.0pt"> <p class="MsoNormal" style="margin-left:28.35pt;text-indent:-28.35pt;line-height: normal;page-break-after:avoid;border:none;padding:0in"><b><span lang="EL">11.     ΟΝΟΜΑ ΚΑΙ ΔΙΕΥΘΥΝΣΗ ΚΑΤΟΧΟΥ ΤΗΣ ΑΔΕΙΑΣ ΚΥΚΛΟΦΟΡΙΑΣ</span></b></p> </div><p class="MsoNormal" style="line-height:normal;page-break-after:avoid"></p><p class="MsoNormal" style="line-height:normal"><span lang="EL">Swedish Orphan Biovitrum AB (publ)</span></p><p class="MsoNormal" style="line-height:normal"><span lang="EL">SE-112 76 Stockholm</span></p><p class="MsoNormal" style="line-height:normal"><span lang="EL">Σουηδία</span></p><p class="MsoNormal" style="line-height:normal"></p><p class="MsoNormal" style="line-height:normal"></p><div style="border:solid windowtext 1.0pt;padding:1.0pt 4.0pt 1.0pt 4.0pt"> <p class="MsoNormal" style="margin-left:28.35pt;text-indent:-28.35pt;line-height: normal;page-break-after:avoid;border:none;padding:0in"><b><span lang="EL">12.     ΑΡΙΘΜΟΣ(ΟΙ) ΑΔΕΙΑΣ ΚΥΚΛΟΦΟΡΙΑΣ</span></b></p> </div><p class="MsoNormal" style="line-height:normal"></p><p class="MsoNormal" style="line-height:normal"><span lang="EL">EU/1/15/1046/008</span></p><p class="MsoNormal" style="line-height:normal"></p><p class="MsoNormal" style="line-height:normal"></p><div style="border:solid windowtext 1.0pt;padding:1.0pt 4.0pt 1.0pt 4.0pt"> <p class="MsoNormal" style="margin-left:28.35pt;text-indent:-28.35pt;line-height: normal;page-break-after:avoid;border:none;padding:0in"><b><span lang="EL">13.     ΑΡΙΘΜΟΣ ΠΑΡΤΙΔΑΣ</span></b></p> </div><p class="MsoNormal" style="line-height:normal"></p><p class="MsoNormal" style="line-height:normal"><span lang="EL">Lot</span></p><p class="MsoNormal" style="line-height:normal"></p><p class="MsoNormal" style="line-height:normal"></p><div style="border:solid windowtext 1.0pt;padding:1.0pt 4.0pt 1.0pt 4.0pt"> <p class="MsoNormal" style="margin-left:28.35pt;text-indent:-28.35pt;line-height: normal;page-break-after:avoid;border:none;padding:0in"><b><span lang="EL">14.     ΓΕΝΙΚΗ ΚΑΤΑΤΑΞΗ ΓΙΑ ΤΗ ΔΙΑΘΕΣΗ</span></b></p> </div><p class="MsoNormal" style="line-height:normal"></p><p class="MsoNormal" style="line-height:normal"></p><div style="border:solid windowtext 1.0pt;padding:1.0pt 4.0pt 1.0pt 4.0pt"> <p class="MsoNormal" style="margin-left:28.35pt;text-indent:-28.35pt;line-height: normal;page-break-after:avoid;border:none;padding:0in"><b><span lang="EL">15.     ΟΔΗΓΙΕΣ ΧΡΗΣΗΣ</span></b></p> </div><p class="MsoNormal" style="line-height:normal"></p><p class="MsoNormal" style="line-height:normal"></p><p class="MsoNormal" style="line-height:normal"></p><div style="border:solid windowtext 1.0pt;padding:1.0pt 4.0pt 1.0pt 4.0pt"> <p class="MsoNormal" style="margin-left:28.35pt;text-indent:-28.35pt;line-height: normal;page-break-after:avoid;border:none;padding:0in"><b><span lang="EL">16.     ΠΛΗΡΟΦΟΡΙΕΣ ΣΕ BRAILLE</span></b></p> </div><p class="MsoNormal" style="line-height:normal;page-break-after:avoid"></p><p class="MsoNormal" style="line-height:normal"><span lang="EL">ELOCTA 4000</span></p><p class="MsoNormal" style="line-height:normal"></p><p class="MsoNormal" style="line-height:normal"></p><div style="border:solid windowtext 1.0pt;padding:1.0pt 4.0pt 1.0pt 4.0pt"> <p class="MsoNormal" style="margin-left:28.35pt;text-indent:-28.35pt;line-height: normal;page-break-after:avoid;border:none;padding:0in"><b><span lang="EL">17.     ΜΟΝΑΔΙΚΟΣ ΑΝΑΓΝΩΡΙΣΤΙΚΟΣ ΚΩΔΙΚΟΣ – ΔΙΣΔΙΑΣΤΑΤΟΣ ΓΡΑΜΜΩΤΟΣ ΚΩΔΙΚΑΣ (2D)</span></b></p> </div><p class="MsoNormal" style="line-height:normal;page-break-after:avoid"></p><p class="MsoNormal" style="line-height:normal"><span lang="EL" style="color:black; background:#D9D9D9">Δισδιάστατος γραμμωτός κώδικας (2D) που φέρει τον περιληφθέντα μοναδικό αναγνωριστικό κωδικό.</span></p><p class="MsoNormal" style="line-height:normal"></p><p class="MsoNormal" style="line-height:normal"></p><div style="border:solid windowtext 1.0pt;padding:1.0pt 4.0pt 1.0pt 4.0pt"> <p class="MsoNormal" style="margin-left:28.35pt;text-indent:-28.35pt;line-height: normal;page-break-after:avoid;border:none;padding:0in"><b><span lang="EL">18.     ΜΟΝΑΔΙΚΟΣ ΑΝΑΓΝΩΡΙΣΤΙΚΟΣ ΚΩΔΙΚΟΣ – ΔΕΔΟΜΕΝΑ ΑΝΑΓΝΩΣΙΜΑ ΑΠΟ ΤΟΝ ΑΝΘΡΩΠΟ</span></b></p> </div><p class="MsoNormal" style="line-height:normal;page-break-after:avoid"></p><p class="MsoNormal" style="line-height:normal;page-break-after:avoid"><span lang="EL">PC</span></p><p class="MsoNormal" style="line-height:normal;page-break-after:avoid"><span lang="EL">SN</span></p><p class="MsoNormal" style="line-height:normal"><span lang="EL">NN</span></p><p class="MsoNormal" style="line-height:normal"></p><span lang="EL" style='font-size:11.0pt;font-family:"Times New Roman",serif; color:black;background:#CCCCCC'><br clear="all" style="page-break-before:always"/> </span><br clear="all" style="page-break-before:always"/><p class="MsoNormal" style="line-height:normal"></p><div style="border:solid windowtext 1.0pt;padding:1.0pt 4.0pt 1.0pt 4.0pt"> <p class="MsoNormal" style="line-height:normal;border:none;padding:0in"><b><span lang="EL">ΕΛΑΧΙΣΤΕΣ ΕΝΔΕΙΞΕΙΣ ΠΟΥ ΠΡΕΠΕΙ ΝΑ ΑΝΑΓΡΑΦΟΝΤΑΙ ΣΤΙΣ ΜΙΚΡΕΣ ΣΤΟΙΧΕΙΩΔΕΙΣ ΣΥΣΚΕΥΑΣΙΕΣ</span></b></p> <p class="MsoNormal" style="line-height:normal;border:none;padding:0in"></p> <p class="MsoNormal" style="line-height:normal;border:none;padding:0in"><b><span lang="EL">ΕΠΙΣΗΜΑΝΣΗ ΦΙΑΛΙΔΙΟΥ</span></b></p> </div><p class="MsoNormal" style="line-height:normal"></p><p class="MsoNormal" style="line-height:normal"></p><div style="border:solid windowtext 1.0pt;padding:1.0pt 4.0pt 1.0pt 4.0pt"> <p class="MsoNormal" style="margin-left:28.35pt;text-indent:-28.35pt;line-height: normal;page-break-after:avoid;border:none;padding:0in"><b><span lang="EL">1.       ΟΝΟΜΑΣΙΑ ΤΟΥ ΦΑΡΜΑΚΕΥΤΙΚΟΥ ΠΡΟΪΟΝΤΟΣ ΚΑΙ ΟΔΟΣ(ΟΙ) ΧΟΡΗΓΗΣΗΣ</span></b></p> </div><p class="MsoNormal" style="margin-left:28.35pt;text-indent:-28.35pt;line-height: normal"></p><p class="MsoNormal" style="line-height:normal"><span lang="EL">ELOCTA 4000 IU κόνις για ενέσιμο</span></p><p class="MsoNormal" style="line-height:normal"></p><p class="MsoNormal" style="line-height:normal"><span lang="EL">efmoroctocog alfa</span></p><p class="MsoNormal" style="line-height:normal"><span lang="EL">ανασυνδυασμένος παράγοντας πήξης VIII</span></p><p class="MsoNormal" style="line-height:normal"><span lang="EL">IV</span></p><p class="MsoNormal" style="line-height:normal"></p><p class="MsoNormal" style="line-height:normal"></p><div style="border:solid windowtext 1.0pt;padding:1.0pt 4.0pt 1.0pt 4.0pt"> <p class="MsoNormal" style="margin-left:28.35pt;text-indent:-28.35pt;line-height: normal;page-break-after:avoid;border:none;padding:0in"><b><span lang="EL">2.       ΤΡΟΠΟΣ ΧΟΡΗΓΗΣΗΣ</span></b></p> </div><p class="MsoNormal" style="line-height:normal"></p><p class="MsoNormal" style="line-height:normal"></p><div style="border:solid windowtext 1.0pt;padding:1.0pt 4.0pt 1.0pt 4.0pt"> <p class="MsoNormal" style="margin-left:28.35pt;text-indent:-28.35pt;line-height: normal;page-break-after:avoid;border:none;padding:0in"><b><span lang="EL">3.       ΗΜΕΡΟΜΗΝΙΑ ΛΗΞΗΣ</span></b></p> </div><p class="MsoNormal" style="line-height:normal"></p><p class="MsoNormal" style="line-height:normal"><span lang="EL">EXP</span></p><p class="MsoNormal" style="line-height:normal"></p><p class="MsoNormal" style="line-height:normal"></p><div style="border:solid windowtext 1.0pt;padding:1.0pt 4.0pt 1.0pt 4.0pt"> <p class="MsoNormal" style="margin-left:28.35pt;text-indent:-28.35pt;line-height: normal;page-break-after:avoid;border:none;padding:0in"><b><span lang="EL">4.       ΑΡΙΘΜΟΣ ΠΑΡΤΙΔΑΣ</span></b></p> </div><p class="MsoNormal" style="margin-right:5.65pt;line-height:normal"></p><p class="MsoNormal" style="margin-right:5.65pt;line-height:normal"><span lang="EL">Lot</span></p><p class="MsoNormal" style="margin-right:5.65pt;line-height:normal"></p><p class="MsoNormal" style="margin-right:5.65pt;line-height:normal"></p><div style="border:solid windowtext 1.0pt;padding:1.0pt 4.0pt 1.0pt 4.0pt"> <p class="MsoNormal" style="margin-left:28.35pt;text-indent:-28.35pt;line-height: normal;page-break-after:avoid;border:none;padding:0in"><b><span lang="EL">5.       ΠΕΡΙΕΧΟΜΕΝΟ ΚΑΤΑ ΒΑΡΟΣ, ΚΑΤ’ ΟΓΚΟ Ή ΚΑΤΑ ΜΟΝΑΔΑ</span></b></p> </div><p class="MsoNormal" style="margin-right:5.65pt;line-height:normal;page-break-after: avoid"></p><p class="MsoNormal" style="line-height:normal"><span lang="EL">4000 IU</span></p><p class="MsoNormal" style="margin-right:5.65pt;line-height:normal"></p><p class="MsoNormal" style="margin-right:5.65pt;line-height:normal"></p><div style="border:solid windowtext 1.0pt;padding:1.0pt 4.0pt 1.0pt 4.0pt"> <p class="MsoNormal" style="margin-left:28.35pt;text-indent:-28.35pt;line-height: normal;page-break-after:avoid;border:none;padding:0in"><b><span lang="EL">6.       ΑΛΛΑ ΣΤΟΙΧΕΙΑ</span></b></p> </div><p class="MsoNormal" style="margin-right:5.65pt;line-height:normal"></p><span lang="EL" style='font-size:11.0pt;font-family:"Times New Roman",serif'><br clear="all" style="page-break-before:always"/> </span><br clear="all" style="page-break-before:always"/><div style="border:solid windowtext 1.0pt;padding:1.0pt 4.0pt 1.0pt 4.0pt"> <p class="MsoNormal" style="line-height:normal;border:none;padding:0in"><b><span lang="EL">ΕΛΑΧΙΣΤΕΣ ΕΝΔΕΙΞΕΙΣ ΠΟΥ ΠΡΕΠΕΙ ΝΑ ΑΝΑΓΡΑΦΟΝΤΑΙ ΣΤΙΣ ΜΙΚΡΕΣ ΣΤΟΙΧΕΙΩΔΕΙΣ ΣΥΣΚΕΥΑΣΙΕΣ</span></b></p> <p class="MsoNormal" style="line-height:normal;border:none;padding:0in"></p> <p class="MsoNormal" style="line-height:normal;border:none;padding:0in"><b><span lang="EL">ΕΠΙΣΗΜΑΝΣΗ ΠΡΟΓΕΜΙΣΜΕΝΗΣ ΣΥΡΙΓΓΑΣ</span></b></p> </div><p class="MsoNormal" style="line-height:normal"></p><p class="MsoNormal" style="line-height:normal"></p><div style="border:solid windowtext 1.0pt;padding:1.0pt 4.0pt 1.0pt 4.0pt"> <p class="MsoNormal" style="margin-left:28.35pt;text-indent:-28.35pt;line-height: normal;page-break-after:avoid;border:none;padding:0in"><b><span lang="EL">1.       ΟΝΟΜΑΣΙΑ ΤΟΥ ΦΑΡΜΑΚΕΥΤΙΚΟΥ ΠΡΟΪΟΝΤΟΣ ΚΑΙ ΟΔΟΣ(ΟΙ) ΧΟΡΗΓΗΣΗΣ</span></b></p> </div><p class="MsoNormal" style="margin-left:28.35pt;text-indent:-28.35pt;line-height: normal"></p><p class="MsoNormal" style="line-height:normal"><span lang="EL">Διαλύτης για το ELOCTA</span></p><p class="MsoNormal" style="line-height:normal"><span lang="EL">ύδωρ για ενέσιμα</span></p><p class="MsoNormal" style="line-height:normal"></p><p class="MsoNormal" style="line-height:normal"></p><div style="border:solid windowtext 1.0pt;padding:1.0pt 4.0pt 1.0pt 4.0pt"> <p class="MsoNormal" style="margin-left:28.35pt;text-indent:-28.35pt;line-height: normal;page-break-after:avoid;border:none;padding:0in"><b><span lang="EL">2.       ΤΡΟΠΟΣ ΧΟΡΗΓΗΣΗΣ</span></b></p> </div><p class="MsoNormal" style="line-height:normal"></p><p class="MsoNormal" style="line-height:normal"></p><div style="border:solid windowtext 1.0pt;padding:1.0pt 4.0pt 1.0pt 4.0pt"> <p class="MsoNormal" style="margin-left:28.35pt;text-indent:-28.35pt;line-height: normal;page-break-after:avoid;border:none;padding:0in"><b><span lang="EL">3.       ΗΜΕΡΟΜΗΝΙΑ ΛΗΞΗΣ</span></b></p> </div><p class="MsoNormal" style="line-height:normal"></p><p class="MsoNormal" style="line-height:normal"><span lang="EL">EXP</span></p><p class="MsoNormal" style="line-height:normal"></p><p class="MsoNormal" style="line-height:normal"></p><div style="border:solid windowtext 1.0pt;padding:1.0pt 4.0pt 1.0pt 4.0pt"> <p class="MsoNormal" style="margin-left:28.35pt;text-indent:-28.35pt;line-height: normal;page-break-after:avoid;border:none;padding:0in"><b><span lang="EL">4.       ΑΡΙΘΜΟΣ ΠΑΡΤΙΔΑΣ</span></b></p> </div><p class="MsoNormal" style="margin-right:5.65pt;line-height:normal"></p><p class="MsoNormal" style="margin-right:5.65pt;line-height:normal"><span lang="EL">Lot</span></p><p class="MsoNormal" style="margin-right:5.65pt;line-height:normal"></p><p class="MsoNormal" style="margin-right:5.65pt;line-height:normal"></p><div style="border:solid windowtext 1.0pt;padding:1.0pt 4.0pt 1.0pt 4.0pt"> <p class="MsoNormal" style="margin-left:28.35pt;text-indent:-28.35pt;line-height: normal;page-break-after:avoid;border:none;padding:0in"><b><span lang="EL">5.       ΠΕΡΙΕΧΟΜΕΝΟ ΚΑΤΑ ΒΑΡΟΣ, ΚΑΤ’ ΟΓΚΟ Ή ΚΑΤΑ ΜΟΝΑΔΑ</span></b></p> </div><p class="MsoNormal" style="margin-right:5.65pt;line-height:normal"></p><p class="MsoNormal" style="margin-right:5.65pt;line-height:normal"><span lang="EL">3 ml</span></p><p class="MsoNormal" style="margin-right:5.65pt;line-height:normal"></p><p class="MsoNormal" style="margin-right:5.65pt;line-height:normal"></p><div style="border:solid windowtext 1.0pt;padding:1.0pt 4.0pt 1.0pt 4.0pt"> <p class="MsoNormal" style="margin-left:28.35pt;text-indent:-28.35pt;line-height: normal;page-break-after:avoid;border:none;padding:0in"><b><span lang="EL">6.       ΑΛΛΑ ΣΤΟΙΧΕΙΑ</span></b></p> </div><p class="MsoNormal" style="margin-right:5.65pt;line-height:normal"></p><p class="MsoNormal" style="margin-right:5.65pt;line-height:normal"></p><span lang="EL" style='font-size:11.0pt;font-family:"Times New Roman",serif'><br clear="all" style="page-break-before:always"/> </span><br clear="all" style="page-break-before:always"/><p class="MsoNormal" style="line-height:normal"></p><p class="MsoNormal" style="margin-right:5.65pt;line-height:normal"></p><p class="MsoNormal" style="margin-right:5.65pt;line-height:normal"></p><p class="MsoNormal" style="margin-right:5.65pt;line-height:normal"></p><p class="MsoNormal" style="margin-right:5.65pt;line-height:normal"></p><p class="MsoNormal" style="margin-right:5.65pt;line-height:normal"></p><p class="MsoNormal" style="margin-right:5.65pt;line-height:normal"></p><p class="MsoNormal" style="margin-right:5.65pt;line-height:normal"></p><p class="MsoNormal" style="margin-right:5.65pt;line-height:normal"></p><p class="MsoNormal" style="margin-right:5.65pt;line-height:normal"></p><p class="MsoNormal" style="margin-right:5.65pt;line-height:normal"></p><p class="MsoNormal" style="margin-right:5.65pt;line-height:normal"></p><p class="MsoNormal" style="margin-right:5.65pt;line-height:normal"></p><p class="MsoNormal" style="margin-right:5.65pt;line-height:normal"></p><p class="MsoNormal" style="margin-right:5.65pt;line-height:normal"></p><p class="MsoNormal" style="margin-right:5.65pt;line-height:normal"></p><p class="MsoNormal" style="margin-right:5.65pt;line-height:normal"></p><p class="MsoNormal" style="margin-right:5.65pt;line-height:normal"></p><p class="MsoNormal" style="margin-right:5.65pt;line-height:normal"></p><p class="MsoNormal" style="margin-right:5.65pt;line-height:normal"></p><p class="MsoNormal" style="margin-right:5.65pt;line-height:normal"></p><p class="MsoNormal" style="margin-right:5.65pt;line-height:normal"></p><p class="MsoNormal" style="margin-right:5.65pt;line-height:normal"></p><p class="MsoNormal" style="margin-right:5.65pt;line-height:normal"></p><p class="TitleA"><span lang="EL">B. ΦΥΛΛΟ ΟΔΗΓΙΩΝ ΧΡΗΣΗΣ</span></p><p align="center" class="MsoNormal" style="text-align:center;line-height:normal"></p><b><span lang="EL" style='font-size:11.0pt;font-family:"Times New Roman",serif'><br clear="all" style="page-break-before:always"/> </span></b><span lang="EL" style='font-size:11.0pt;font-family:"Times New Roman",serif'><br clear="all" style="page-break-before:always"/> </span><br clear="all" style="page-break-before:always"/><p align="center" class="MsoNormal" style="text-align:center;line-height:normal"><b><span lang="EL">Φύλλο οδηγιών χρήσης: Πληροφορίες για τον χρήστη</span></b></p><p align="center" class="MsoNormal" style="text-align:center;line-height:normal"></p><p align="center" class="MsoNormal" style="text-align:center;line-height:normal"><b><span lang="EL">ELOCTA 250 IU κόνις και διαλύτης για ενέσιμο διάλυμα</span></b></p><p align="center" class="MsoNormal" style="text-align:center;line-height:normal"><b><span lang="EL">ELOCTA 500 IU κόνις και διαλύτης για ενέσιμο διάλυμα</span></b></p><p align="center" class="MsoNormal" style="text-align:center;line-height:normal"><b><span lang="EL">ELOCTA 750 IU κόνις και διαλύτης για ενέσιμο διάλυμα</span></b></p><p align="center" class="MsoNormal" style="text-align:center;line-height:normal"><b><span lang="EL">ELOCTA 1000 IU κόνις και διαλύτης για ενέσιμο διάλυμα</span></b></p><p align="center" class="MsoNormal" style="text-align:center;line-height:normal"><b><span lang="EL">ELOCTA 1500 IU κόνις και διαλύτης για ενέσιμο διάλυμα</span></b></p><p align="center" class="MsoNormal" style="text-align:center;line-height:normal"><b><span lang="EL">ELOCTA 2000 IU κόνις και διαλύτης για ενέσιμο διάλυμα</span></b></p><p align="center" class="MsoNormal" style="text-align:center;line-height:normal"><b><span lang="EL">ELOCTA 3000 IU κόνις και διαλύτης για ενέσιμο διάλυμα</span></b></p><p align="center" class="MsoNormal" style="text-align:center;line-height:normal"><b><span lang="EL">ELOCTA 4000 IU κόνις και διαλύτης για ενέσιμο διάλυμα</span></b></p><p align="center" class="MsoNormal" style="text-align:center;line-height:normal"></p><p align="center" class="MsoNormal" style="text-align:center;line-height:normal"><span lang="EL">εφμοροκτοκόγη άλφα (efmoroctocog alfa) (ανασυνδυασμένος παράγοντας πήξης VIII)</span></p><p align="center" class="MsoNormal" style="text-align:center;line-height:normal"></p><p class="MsoNormal" style="line-height:normal"><b><span lang="EL">Διαβάστε προσεκτικά ολόκληρο το φύλλο οδηγιών χρήσης πριν αρχίσετε να χρησιμοποιείτε αυτό το φάρμακο, διότι περιλαμβάνει σημαντικές πληροφορίες για σας.</span></b></p><p class="MsoListParagraphCxSpFirst" style="margin-left:28.35pt;text-indent:-28.35pt"><span lang="EL" style="font-size:11.0pt">-</span><span lang="EL" style="font-size:11.0pt">Φυλάξτε αυτό το φύλλο οδηγιών χρήσης. Ίσως χρειαστεί να το διαβάσετε ξανά.</span></p><p class="MsoListParagraphCxSpMiddle" style="margin-left:28.35pt;text-indent: -28.35pt"><span lang="EL" style="font-size:11.0pt">-</span><span lang="EL" style="font-size:11.0pt">Εάν έχετε περαιτέρω απορίες, ρωτήστε τον γιατρό, τον φαρμακοποιό ή τον νοσοκόμο σας.</span></p><p class="MsoListParagraphCxSpMiddle" style="margin-left:28.35pt;text-indent: -28.35pt"><span lang="EL" style="font-size:11.0pt">-</span><span lang="EL" style="font-size:11.0pt">Η συνταγή για αυτό το φάρμακο χορηγήθηκε αποκλειστικά για σας. Δεν πρέπει να δώσετε το φάρμακο σε άλλους. Μπορεί να τους προκαλέσει βλάβη, ακόμα και όταν τα συμπτώματα της ασθένειάς τους είναι ίδια με τα δικά σας.</span></p><p class="MsoListParagraphCxSpLast" style="margin-left:28.35pt;text-indent:-28.35pt"><span lang="EL" style="font-size:11.0pt">-</span><span lang="EL" style="font-size:11.0pt">Εάν παρατηρήσετε κάποια ανεπιθύμητη ενέργεια, ενημερώστε τον γιατρό, τον φαρμακοποιό ή τον νοσοκόμο σας. Αυτό ισχύει και για κάθε πιθανή ανεπιθύμητη ενέργεια που δεν αναφέρεται στο παρόν φύλλο οδηγιών χρήσης. Βλέπε παράγραφο 4.</span></p><p class="MsoNormal" style="line-height:normal"></p><p class="MsoNormal" style="line-height:normal"><b><span lang="EL">Τι περιέχει το παρόν φύλλο οδηγιών</span></b></p><p class="MsoListParagraphCxSpFirst" style="margin-left:28.35pt;text-indent:-28.35pt"><span lang="EL" style="font-size:11.0pt">1.</span><span lang="EL" style="font-size:11.0pt">Τι είναι το ELOCTA και ποια είναι η χρήση του</span></p><p class="MsoListParagraphCxSpMiddle" style="margin-left:28.35pt;text-indent: -28.35pt"><span lang="EL" style="font-size:11.0pt">2.</span><span lang="EL" style="font-size:11.0pt">Τι πρέπει να γνωρίζετε πριν χρησιμοποιήσετε το ELOCTA</span></p><p class="MsoListParagraphCxSpMiddle" style="margin-left:28.35pt;text-indent: -28.35pt"><span lang="EL" style="font-size:11.0pt">3.</span><span lang="EL" style="font-size:11.0pt">Πώς να χρησιμοποιήσετε το ELOCTA</span></p><p class="MsoListParagraphCxSpMiddle" style="margin-left:28.35pt;text-indent: -28.35pt"><span lang="EL" style="font-size:11.0pt">4.</span><span lang="EL" style="font-size:11.0pt">Πιθανές ανεπιθύμητες ενέργειες</span></p><p class="MsoListParagraphCxSpMiddle" style="margin-left:28.35pt;text-indent: -28.35pt"><span lang="EL" style="font-size:11.0pt">5.</span><span lang="EL" style="font-size:11.0pt">Πώς να φυλάσσετε το ELOCTA</span></p><p class="MsoListParagraphCxSpLast" style="margin-left:28.35pt;text-indent:-28.35pt"><span lang="EL" style="font-size:11.0pt">6.</span><span lang="EL" style="font-size:11.0pt">Περιεχόμενα της συσκευασίας και λοιπές πληροφορίες</span></p><p class="MsoNormal" style="line-height:normal"></p><p class="MsoNormal" style="line-height:normal"></p><p class="MsoListParagraphCxSpFirst" style="margin-left:28.35pt;text-indent:-28.35pt; page-break-after:avoid"><b><span lang="EL" style="font-size:11.0pt">1.       Τι είναι το ELOCTA και ποια είναι η χρήση του</span></b></p><p class="MsoListParagraphCxSpLast" style="margin-left:0in;page-break-after:avoid"></p><p class="MsoNormal" style="line-height:normal"><span lang="EL">Το ELOCTA περιέχει τη δραστική ουσία εφμοροκτοκόγη άλφα, ένας ανασυνδυασμένος παράγοντας πήξης VIII, πρωτεΐνη σύντηξης Fc. Ο παράγοντας VIII είναι μια πρωτεΐνη που παράγεται φυσικά στον οργανισμό και είναι απαραίτητη για να μπορεί το αίμα να σχηματίζει θρόμβους και να σταματά η αιμορραγία.</span></p><p class="MsoNormal" style="line-height:normal"></p><p class="MsoNormal" style="line-height:normal"><span lang="EL">Το ELOCTA είναι ένα φάρμακο που χρησιμοποιείται για τη θεραπεία και την πρόληψη της αιμορραγίας σε όλες τις ηλικιακές ομάδες ασθενών με αιμορροφιλία A (κληρονομική αιμορραγική διαταραχή που προκαλείται από ανεπάρκεια του παράγοντα VIII).</span></p><p class="MsoNormal" style="line-height:normal"></p><p class="MsoNormal" style="line-height:normal"><span lang="EL">Το ELOCTA παρασκευάζεται μέσω τεχνολογίας ανασυνδυασμού χωρίς την προσθήκη οποιωνδήποτε συστατικών ανθρώπινης ή ζωικής προέλευσης στη διαδικασία παραγωγής.</span></p><p class="MsoNormal" style="line-height:normal"></p><p class="MsoNormal" style="line-height:normal;page-break-after:avoid"><b><span lang="EL">Πώς λειτουργεί το ELOCTA</span></b></p><p class="MsoNormal" style="line-height:normal"><span lang="EL">Σε ασθενείς με αιμορροφιλία A, ο παράγοντας VIII απουσιάζει ή δεν λειτουργεί σωστά. Το ELOCTA χρησιμοποιείται για να υποκαταστήσει τον απόντα ή ανεπαρκή παράγοντα VIII. Το ELOCTA αυξάνει τα επίπεδα του παράγοντα VIII στο αίμα και προσωρινά διορθώνει την τάση για αιμορραγία.</span></p><p class="MsoNormal" style="line-height:normal"></p><p class="MsoNormal" style="line-height:normal"></p><p class="MsoListParagraph" style="margin-left:28.35pt;text-indent:-28.35pt; page-break-after:avoid"><b><span lang="EL" style="font-size:11.0pt">2.       Τι πρέπει να γνωρίζετε πριν χρησιμοποιήσετε το ELOCTA</span></b></p><p class="MsoNormal" style="line-height:normal;page-break-after:avoid"></p><p class="MsoNormal" style="line-height:normal;page-break-after:avoid"><b><span lang="EL">Μην χρησιμοποιήσετε το ELOCTA:</span></b></p><p class="MsoNormal" style="margin-left:28.35pt;text-indent:-28.35pt;line-height: normal"><span lang="EL" style="font-family:Symbol">·</span><span lang="EL">σε περίπτωση αλλεργίας στην εφμοροκτοκόγη άλφα ή σε οποιοδήποτε άλλο από τα συστατικά αυτού του φαρμάκου (αναφέρονται στην παράγραφο 6).</span></p><p class="MsoNormal" style="line-height:normal"></p><p class="MsoNormal" style="line-height:normal;page-break-after:avoid"><b><span lang="EL">Προειδοποιήσεις και προφυλάξεις</span></b></p><p class="MsoNormal" style="line-height:normal;page-break-after:avoid"><span lang="EL">Απευθυνθείτε στον γιατρό, τον φαρμακοποιό ή τον νοσοκόμο σας πριν χρησιμοποιήσετε το ELOCTA.</span></p><p class="MsoNormal" style="line-height:normal;page-break-after:avoid"></p><p class="MsoNormal" style="margin-left:28.35pt;text-indent:-28.35pt;line-height: normal"><span lang="EL" style="font-family:Symbol">·</span><span lang="EL">Υπάρχει το μικρό ενδεχόμενο να εμφανίσετε αναφυλακτική αντίδραση (μια σοβαρή, ξαφνική αλλεργική αντίδραση) στο ELOCTA. Τα σημεία αλλεργικών αντιδράσεων μπορεί να περιλαμβάνουν γενικευμένη κνίδωση, κνίδωση, αίσθημα σύσφιξης του θώρακα, δυσκολία στην αναπνοή και χαμηλή αρτηριακή πίεση. Εάν εμφανιστούν οποιαδήποτε από αυτά τα συμπτώματα, διακόψτε την ένεση αμέσως και επικοινωνήστε με τον γιατρό σας.</span></p><p class="MsoNormal" style="margin-left:28.35pt;text-indent:-28.35pt;line-height: normal"></p><p class="MsoNormal" style="margin-left:28.35pt;text-indent:-28.35pt;line-height: normal"><span lang="EL" style="font-family:Symbol">·</span><span lang="EL">Ο σχηματισμός αναστολέων (αντισωμάτων) είναι μια γνωστή επιπλοκή που μπορεί να παρουσιαστεί κατά τη διάρκεια της θεραπείας με όλα τα φάρμακα που περιέχουν Παράγοντα VIII. Αυτοί οι αναστολείς, ειδικά σε υψηλά επίπεδα, δεν επιτρέπουν στη θεραπεία να λειτουργήσει σωστά και εσείς ή το παιδί σας θα παρακολουθείστε προσεκτικά για τυχόν ανάπτυξη αυτών των αναστολέων. Εάν η αιμορραγία σας ή αιμορραγία του παιδιού σας δεν ελέγχεται με το ELOCTA, ενημερώστε αμέσως τον γιατρό σας.</span></p><p class="MsoListParagraph" style="margin-left:0in"><u><span lang="EL" style="font-size:11.0pt"></span></u></p><p class="MsoNormal" style="line-height:normal;page-break-after:avoid"><a name="_Hlk42693946"><u><span lang="EL">Καρδιαγγειακά επεισόδια</span></u></a></p><p class="MsoListParagraph" style="margin-left:0in"><span lang="EL" style="font-size:11.0pt">Εάν έχετε καρδιακή νόσο ή διατρέχετε κίνδυνο για καρδιακή νόσο, προσέξτε ιδιαίτερα όταν χρησιμοποιείτε φάρμακα παράγοντα VIII και απευθυνθείτε στον γιατρό σας.</span></p><p class="MsoNormal" style="line-height:normal"><u><span lang="EL"></span></u></p><p class="MsoNormal" style="line-height:normal;page-break-after:avoid"><u><span lang="EL">Επιπλοκές σχετιζόμενες με καθετήρα</span></u></p><p class="MsoNormal" style="line-height:normal"><span lang="EL">Εάν απαιτείτε συσκευή κεντρικής φλεβικής προσπέλασης (<i>central venous access device</i>, CVAD), θα πρέπει να λαμβάνεται υπόψη ο κίνδυνος επιπλοκών σχετιζόμενων με CVAD συμπεριλαμβανομένων τοπικών λοιμώξεων, παρουσίας βακτηρίων στο αίμα και θρόμβωσης στη θέση του καθετήρα.</span></p><p class="MsoNormal" style="line-height:normal"></p><p class="MsoNormal" style="line-height:normal;page-break-after:avoid"><u><span lang="EL">Τεκμηρίωση</span></u></p><p class="MsoNormal" style="line-height:normal"><span lang="EL">Κάθε φορά που χορηγείται το ELOCTA, συνιστάται έντονα να καταγράφονται το όνομα και ο αριθμός παρτίδας του προϊόντος.</span></p><p class="MsoNormal" style="line-height:normal"></p><p class="MsoNormal" style="line-height:normal;page-break-after:avoid"><b><span lang="EL">Άλλα φάρμακα και ELOCTA</span></b></p><p class="MsoNormal" style="line-height:normal"><span lang="EL">Ενημερώστε τον γιατρό ή τον φαρμακοποιό σας εάν χρησιμοποιείτε, έχετε πρόσφατα χρησιμοποιήσει ή μπορεί να χρησιμοποιήσετε άλλα φάρμακα.</span></p><p class="MsoNormal" style="line-height:normal"></p><p class="MsoNormal" style="line-height:normal;page-break-after:avoid"><b><span lang="EL">Κύηση και θηλασμός</span></b></p><p class="MsoNormal" style="line-height:normal"><span lang="EL">Εάν είστε έγκυος ή θηλάζετε, νομίζετε ότι μπορεί να είστε έγκυος ή σχεδιάζετε να αποκτήσετε παιδί, ζητήστε τη συμβουλή του γιατρού ή του φαρμακοποιού σας πριν πάρετε αυτό το φάρμακο.</span></p><p class="MsoNormal" style="line-height:normal"></p><p class="MsoNormal" style="line-height:normal;page-break-after:avoid"><b><span lang="EL">Οδήγηση και χειρισμός μηχανημάτων</span></b></p><p class="MsoNormal" style="line-height:normal"><span lang="EL">Δεν έχουν παρατηρηθεί επιδράσεις στην ικανότητα οδήγησης ή χειρισμού μηχανημάτων.</span></p><p class="MsoNormal" style="line-height:normal"></p><p class="MsoNormal" style="line-height:normal;page-break-after:avoid"><b><span lang="EL">Το ELOCTA περιέχει νάτριο</span></b></p><p class="MsoNormal" style="line-height:normal"><span lang="EL">Το φάρμακο αυτό περιέχει </span><span lang="EL">λιγότερο από 1</span><span lang="EL">mmol</span><span lang="EL"> νατρίου </span><span lang="EL">(23 mg) </span><span lang="EL">ανά φιαλίδιο</span><span lang="EL">, είναι αυτό που ονομάζουμε «ελεύθερο</span><span lang="EL"> νατρίου</span><span lang="EL">»</span><span lang="EL">.</span></p><p class="MsoNormal" style="line-height:normal"><span lang="EL">Ωστόσο, ανάλογα με το σωματικό βάρος και τη δόση σας, μπορεί να λαμβάνετε περισσότερο από ένα φιαλίδιο. Αυτό πρέπει να λαμβάνεται υπόψη εάν είστε σε δίαιτα ελεγχόμενου νατρίου.</span></p><p class="MsoNormal" style="line-height:normal"></p><p class="MsoNormal" style="line-height:normal"></p><p class="MsoListParagraph" style="margin-left:28.35pt;text-indent:-28.35pt; page-break-after:avoid"><b><span lang="EL" style="font-size:11.0pt">3.       Πώς να χρησιμοποιήσετε το ELOCTA</span></b></p><p class="MsoNormal" style="line-height:normal;page-break-after:avoid"></p><p class="MsoNormal" style="line-height:normal"><span lang="EL">Η θεραπεία με το ELOCTA ξεκινά από γιατρό έμπειρο στη φροντίδα ασθενών με αιμορροφιλία. Πάντοτε να χρησιμοποιείτε το φάρμακο αυτό αυστηρά σύμφωνα με τις οδηγίες του γιατρού σας (βλ. Οδηγίες για την προετοιμασία και χορήγηση). Εάν έχετε αμφιβολίες, ρωτήστε τον γιατρό, τον φαρμακοποιό ή τον/την νοσοκόμο σας.</span></p><p class="MsoNormal" style="line-height:normal"></p><p class="MsoNormal" style="line-height:normal"><span lang="EL">Το ELOCTA χορηγείται ως ένεση σε μια φλέβα. </span><span lang="EL">Ο γιατρός σας θα υπολογίσει τη δόση του ELOCTA (σε Διεθνείς Μονάδες ή «IU») ανάλογα με τις ατομικές σας ανάγκες για θεραπεία υποκατάστασης παράγοντα VIII και από το εάν χρησιμοποιείται για πρόληψη ή για θεραπεία της αιμορραγίας. Απευθυνθείτε στον γιατρό σας εάν νομίζετε ότι η αιμορραγία σας δεν ελέγχεται με τη δόση που λαμβάνετε.</span></p><p class="MsoNormal" style="line-height:normal"></p><p class="MsoNormal" style="line-height:normal"><span lang="EL">Το πόσο συχνά χρειάζεστε μια ένεση θα εξαρτηθεί από το πόσο καλά λειτουργεί το ELOCTA για σας. Ο γιατρός σας θα πραγματοποιήσει τις κατάλληλες εργαστηριακές εξετάσεις για να διασφαλίσει ότι έχετε επαρκή επίπεδα παράγοντα VIII στο αίμα σας.</span></p><p class="MsoNormal" style="line-height:normal"></p><p class="MsoNormal" style="line-height:normal;page-break-after:avoid"><b><span lang="EL">Θεραπεία της αιμορραγίας</span></b></p><p class="MsoNormal" style="line-height:normal"><span lang="EL">Η δόση του ELOCTA υπολογίζεται ανάλογα με το σωματικό βάρος σας και τα επίπεδα παράγοντα VIII που πρέπει να επιτευχθούν. Τα επιδιωκόμενα επίπεδα VIII θα εξαρτηθούν από τη σοβαρότητα και τη θέση της αιμορραγίας.</span></p><p class="MsoNormal" style="line-height:normal"></p><p class="MsoNormal" style="line-height:normal;page-break-after:avoid"><b><span lang="EL">Πρόληψη της αιμορραγίας</span></b></p><p class="MsoNormal"><span lang="EL">Συνήθης δόση του ELOCTA είναι 50 IU ανά χιλιόγραμμο σωματικού βάρους, χορηγούμενη κάθε 3 έως 5 ημέρες. Η δόση μπορεί να προσαρμοστεί από τον γιατρό σας στο εύρος από 25 έως 65 IU ανά χιλιόγραμμο σωματικού βάρους. Σε ορισμένες περιπτώσεις, ιδίως όταν πρόκειται για νεαρής ηλικίας ασθενείς, ενδέχεται να απαιτούνται μικρότερα δοσολογικά μεσοδιαστήματα ή υψηλότερες δόσεις.</span></p><p class="MsoNormal" style="line-height:normal"></p><p class="MsoNormal" style="line-height:normal;page-break-after:avoid"><b><span lang="EL">Χρήση σε παιδιά και εφήβους</span></b></p><p class="MsoNormal" style="line-height:normal"><span lang="EL">Το ELOCTA μπορεί να χρησιμοποιηθεί σε παιδιά και εφήβους όλων των ηλικιών. Στα παιδιά ηλικίας κάτω των 12 ετών, μπορεί να απαιτούνται υψηλότερες δόσεις ή συχνότερες ενέσεις.</span></p><p class="MsoNormal" style="line-height:normal"></p><p class="MsoNormal" style="line-height:normal;page-break-after:avoid"><b><span lang="EL">Εάν χρησιμοποιήσετε μεγαλύτερη δόση ELOCTA από την κανονική</span></b></p><p class="MsoNormal" style="line-height:normal"><span lang="EL">Ενημερώστε τον γιατρό σας το συντομότερο δυνατόν. Πρέπει πάντοτε να χρησιμοποιείτε το ELOCTA αυστηρά σύμφωνα με τις οδηγίες του γιατρού σας. Εάν έχετε αμφιβολίες, ρωτήστε τον γιατρό, τον φαρμακοποιό ή τον/την νοσοκόμο σας.</span></p><p class="MsoNormal" style="line-height:normal"></p><p class="MsoNormal" style="line-height:normal;page-break-after:avoid"><b><span lang="EL">Εάν ξεχάσετε να χρησιμοποιήσετε το ELOCTA</span></b></p><p class="MsoNormal" style="line-height:normal"><span lang="EL">Μην πάρετε διπλή δόση για να αναπληρώσετε τη δόση που ξεχάσατε. Πάρτε τη δόση σας μόλις το θυμηθείτε και κατόπιν συνεχίστε με το κανονικό δοσολογικό σας πρόγραμμα. Εάν δεν είστε βέβαιοι τι να κάνετε, ρωτήστε τον γιατρό ή τον φαρμακοποιό σας.</span></p><p class="MsoNormal" style="line-height:normal"></p><p class="MsoNormal" style="line-height:normal;page-break-after:avoid"><b><span lang="EL">Εάν σταματήσετε να χρησιμοποιείτε το ELOCTA</span></b></p><p class="MsoNormal" style="line-height:normal"><span lang="EL">Μην σταματήσετε να παίρνετε το ELOCTA χωρίς να συμβουλευθείτε τον γιατρό σας. Εάν σταματήσετε να χρησιμοποιείτε το ELOCTA, μπορεί να μην προστατεύεστε πλέον από αιμορραγία, ή μια υπάρχουσα αιμορραγία μπορεί να μη σταματά.</span></p><p class="MsoNormal" style="line-height:normal"></p><p class="MsoNormal" style="line-height:normal"><span lang="EL">Εάν έχετε περισσότερες ερωτήσεις σχετικά με τη χρήση αυτού του φαρμάκου, ρωτήστε τον γιατρό, τον φαρμακοποιό ή τον νοσοκόμο σας.</span></p><p class="MsoNormal" style="line-height:normal"></p><p class="MsoNormal" style="line-height:normal"></p><p class="MsoListParagraph" style="margin-left:28.35pt;text-indent:-28.35pt; page-break-after:avoid"><b><span lang="EL" style="font-size:11.0pt">4.       Πιθανές ανεπιθύμητες ενέργειες</span></b></p><p class="MsoNormal" style="line-height:normal;page-break-after:avoid"></p><p class="MsoNormal" style="line-height:normal"><span lang="EL">Όπως όλα τα φάρμακα, έτσι και αυτό το φάρμακο μπορεί να προκαλέσει ανεπιθύμητες ενέργειες, αν και δεν παρουσιάζονται σε όλους τους ανθρώπους.</span></p><p class="MsoNormal" style="line-height:normal"></p><p class="MsoNormal" style="line-height:normal"><span lang="EL">Εάν εμφανιστούν σοβαρές, ξαφνικές αλλεργικές αντιδράσεις (αναφυλακτική αντίδραση), η ένεση πρέπει να διακοπεί αμέσως. Πρέπει να επικοινωνήσετε με τον γιατρό σας αμέσως εάν παρουσιάσετε οποιοδήποτε από τα ακόλουθα συμπτώματα αλλεργικών αντιδράσεων: οίδημα του προσώπου, εξάνθημα, γενικευμένη κνίδωση, κνίδωση, αίσθημα σύσφιξης του θώρακα, δυσκολία στην αναπνοή</span><span lang="EL">, </span><span lang="EL">αίσθημα καύσου και νυγμού στο σημείο της ένεσης, ρίγη, εξάψεις, κεφαλαλγία, χαμηλή αρτηριακή πίεση, γενικό αίσθημα αδιαθεσίας, ναυτία, ανησυχία και γρήγορος καρδιακός παλμός, αίσθημα ζάλης ή απώλεια των αισθήσεων.</span></p><p class="MsoNormal" style="line-height:normal"></p><p class="MsoNormal" style="line-height:normal"><span lang="EL">Για παιδιά που δεν είχαν προηγουμένως υποβληθεί σε θεραπεία με φάρμακα που περιέχουν </span><span lang="EL">π</span><span lang="EL">αράγοντα VIII, μπορεί να σχηματιστούν αντισώματα αναστολέων (βλέπε παράγραφο 2) πολύ συχνά (περισσότεροι από 1 στους 10 ασθενείς). Ωστόσο, για ασθενείς που είχαν λάβει προηγούμενη θεραπεία με παράγοντα VIII (περισσότερες από 150 ημέρες θεραπείας) ο κίνδυνος είναι όχι συχνός (λιγότεροι από 1 στους 100 ασθενείς). Εάν συμβεί αυτό, τα φάρμακα μπορεί να πάψουν να λειτουργούν σωστά και μπορεί να παρουσιάσετε επίμονη αιμορραγία. Εάν συμβεί αυτό, θα πρέπει να επικοινωνήσετε αμέσως με τον γιατρό σας.</span></p><p class="MsoNormal" style="line-height:normal"></p><p class="MsoNormal" style="line-height:normal"><span lang="EL">Είναι δυνατόν να παρουσιαστούν οι ακόλουθες ανεπιθύμητες ενέργειες:</span></p><p class="MsoNormal" style="line-height:normal"></p><p class="MsoNormal" style="line-height:normal;page-break-after:avoid"><b><span lang="EL">Όχι συχνές ανεπιθύμητες ενέργειες (μπορεί να επηρεάσουν μέχρι 1 στα 100 άτομα)</span></b></p><p class="MsoNormal" style="line-height:normal"><span lang="EL">K</span><span lang="EL">εφαλαλγία, ζάλη, αλλοίωση της γεύσης, αργός καρδιακός παλμός, υψηλή αρτηριακή πίεση, εξάψεις, αγγειακός πόνος μετά την ένεση, βήχας, πόνος στην κατώτερη κοιλιακή χώρα, εξάνθημα, βλατιδώδες εξάνθημα, θρόμβωση σχετιζόμενη με συσκευή, οίδημα των αρθρώσεων, μυικός πόνος, οσφυαλγία, πόνοι στις αρθρώσεις, γενική δυσφορία, θωρακικός πόνος, αίσθημα ψύχους, αίσθημα θερμότητας και χαμηλή αρτηριακή πίεση.</span></p><p class="MsoNormal" style="line-height:normal"></p><p class="MsoNormal" style="line-height:normal;page-break-after:avoid"><b><span lang="EL">Αναφορά ανεπιθύμητων ενεργειών</span></b></p><p class="MsoNormal" style="line-height:normal"><span lang="EL">Εάν παρατηρήσετε κάποια ανεπιθύμητη ενέργεια, ενημερώστε τον γιατρό, τον φαρμακοποιό ή τον/την νοσοκόμο σας. Αυτό ισχύει και για κάθε πιθανή ανεπιθύμητη ενέργεια που δεν αναφέρεται στο παρόν φύλλο οδηγιών χρήσης. Μπορείτε επίσης να αναφέρετε ανεπιθύμητες ενέργειες απευθείας, μέσω <span style="color:black;background:#BFBFBF">του εθνικού συστήματος αναφοράς που αναγράφεται στο </span></span><span lang="EN-GB"><a href="http://www.ema.europa.eu/docs/en_GB/document_library/Template_or_form/2013/03/WC500139752.doc"><span lang="EL" style="background:lightgrey">Παράρτημα V</span></a></span><span lang="EL">. Μέσω της αναφοράς ανεπιθύμητων ενεργειών μπορείτε να βοηθήσετε στη συλλογή περισσότερων πληροφοριών σχετικά με την ασφάλεια του παρόντος φαρμάκου.</span></p><p class="MsoNormal" style="line-height:normal"></p><p class="MsoNormal" style="line-height:normal"></p><p class="MsoListParagraph" style="margin-left:28.35pt;text-indent:-28.35pt; page-break-after:avoid"><b><span lang="EL" style="font-size:11.0pt">5.       Πώς να φυλάσσετε το ELOCTA</span></b></p><p class="MsoNormal" style="line-height:normal;page-break-after:avoid"></p><p class="MsoNormal" style="line-height:normal"><span lang="EL">Το φάρμακο αυτό πρέπει να φυλάσσεται σε μέρη που δεν το βλέπουν και δεν το φθάνουν τα παιδιά.</span></p><p class="MsoNormal" style="line-height:normal"></p><p class="MsoNormal" style="line-height:normal"><span lang="EL">Να μη χρησιμοποιείτε αυτό το φάρμακο μετά την ημερομηνία λήξης που αναφέρεται στο κουτί και στην επισήμανση του φιαλιδίου μετά την «ΛΗΞΗ» / «EXP». Η ημερομηνία λήξης είναι η τελευταία ημέρα του μήνα που αναφέρεται εκεί. Να μη χρησιμοποιείτε αυτό το φάρμακο εάν έχει φυλαχθεί σε θερμοκρασία δωματίου για περισσότερο από 6 μήνες.</span></p><p class="MsoNormal" style="line-height:normal"></p><p class="MsoNormal" style="line-height:normal"><span lang="EL">Φυλάσσετε σε ψυγείο (2°C ‑ 8°C).</span></p><p class="MsoNormal" style="line-height:normal"><span lang="EL">Μην καταψύχετε.</span></p><p class="MsoNormal" style="line-height:normal"><span lang="EL">Φυλάσσετε στην αρχική συσκευασία για να προστατεύεται από το φως.</span></p><p class="MsoNormal" style="line-height:normal"></p><p class="MsoNormal" style="line-height:normal"><span lang="EL">Εναλλακτικά, το ELOCTA μπορεί να φυλάσσεται σε θερμοκρασία δωματίου (μέχρι 30°C) για μια μεμονωμένη περίοδο η οποία δεν υπερβαίνει τους 6 μήνες. Kαταγράψτε στο χάρτινο κουτί την ημερομηνία που το ELOCTA βγαίνει από το ψυγείο και τίθεται σε θερμοκρασία δωματίου. Μετά τη φύλαξη σε θερμοκρασία δωματίου, το προϊόν δεν πρέπει να επιστραφεί στο ψυγείο.</span></p><p class="MsoNormal" style="line-height:normal"></p><p class="MsoNormal" style="line-height:normal"><span lang="EL">Αφού προετοιμάσετε το ELOCTA, πρέπει να χρησιμοποιηθεί αμέσως. Εάν δεν μπορείτε να χρησιμοποιήσετε το προετοιμασμένο διάλυμα του ELOCTA αμέσως, πρέπει να χρησιμοποιηθεί εντός 6 ωρών. Μην ψύχετε το προετοιμασμένο διάλυμα. Προστατέψτε το προετοιμασμένο διάλυμα από το άμεσο ηλιακό φως.</span></p><p class="MsoNormal" style="line-height:normal"></p><p class="MsoNormal" style="line-height:normal"><span lang="EL">Το προετοιμασμένο διάλυμα θα είναι διαυγές έως ελαφρώς οπαλίζον και άχρωμο. Να μη χρησιμοποιείτε αυτό το φάρμακο εάν παρατηρήσετε ότι είναι θολό ή περιέχει ορατά σωματίδια.</span></p><p class="MsoNormal" style="line-height:normal"></p><p class="MsoNormal" style="line-height:normal"><span lang="EL">Απορρίψτε κατάλληλα κάθε αχρησιμοποίητο διάλυμα. Μην πετάτε φάρμακα στο νερό της αποχέτευσης ή στα οικιακά απορρίμματα. Ρωτήστε τον φαρμακοποιό σας για το πώς να πετάξετε τα φάρμακα που δεν χρησιμοποιείτε πια. Αυτά τα μέτρα θα βοηθήσουν στην προστασία του περιβάλλοντος.</span></p><p class="MsoNormal" style="line-height:normal"></p><p class="MsoNormal" style="line-height:normal"></p><p class="MsoListParagraph" style="margin-left:28.35pt;text-indent:-28.35pt; page-break-after:avoid"><b><span lang="EL" style="font-size:11.0pt">6.       Περιεχόμενα της συσκευασίας και λοιπές πληροφορίες</span></b></p><p class="MsoNormal" style="line-height:normal;page-break-after:avoid"></p><p class="MsoNormal" style="line-height:normal;page-break-after:avoid"><b><span lang="EL">Τι περιέχει το ELOCTA</span></b></p><p class="MsoNormal" style="line-height:normal;page-break-after:avoid"></p><p class="MsoNormal" style="margin-left:28.35pt;text-indent:-28.35pt;line-height: normal"><span lang="EL" style="font-family:Symbol">·</span><span lang="EL">Η δραστική ουσία είναι η εφμοροκτοκόγη άλφα (ανασυνδυασμένος παράγοντας πήξης VIII, πρωτεΐνη σύντηξης Fc). Κάθε φιαλίδιο ELOCTA περιέχει ονομαστικά 250, 500, 750, 1.000, 1.500, 2.000, 3.000 ή 4.000 IU εφμοροκτοκόγης άλφα.</span></p><p class="MsoNormal" style="margin-left:28.35pt;text-indent:-28.35pt;line-height: normal"><span lang="EL" style="font-family:Symbol">·</span><span lang="EL">Τα άλλα συστατικά είναι σακχαρόζη, χλωριούχο νάτριο, ιστιδίνη, δίυδρο χλωριούχο ασβέστιο, πολυσορβικό 20, υδροξείδιο του νατρίου, υδροχλωρικό οξύ και ύδωρ για ενέσιμα. Εάν είστε σε δίαιτα ελεγχόμενου νατρίου, βλ. παράγραφο 2.</span></p><p class="MsoNormal" style="line-height:normal"></p><p class="MsoNormal" style="line-height:normal;page-break-after:avoid"><b><span lang="EL">Εμφάνιση του ELOCTA και περιεχόμενα της συσκευασίας</span></b></p><p class="MsoNormal" style="line-height:normal;page-break-after:avoid"></p><p class="MsoNormal" style="line-height:normal"><span lang="EL">Το ELOCTA παρέχεται ως κόνις και διαλύτης για ενέσιμο διάλυμα. Η κόνις είναι λευκή έως υπόλευκη κόνις ή πλάκα. Ο διαλύτης που παρέχεται για την προετοιμασία του ενέσιμου διαλύματος είναι διαυγές, άχρωμο διάλυμα. Μετά την προετοιμασία, το ενέσιμο διάλυμα είναι διαυγές έως ελαφρώς οπαλίζον και άχρωμο.</span></p><p class="MsoNormal" style="line-height:normal"></p><p class="MsoNormal" style="line-height:normal"><span lang="EL">Κάθε συσκευασία ELOCTA περιέχει 1 φιαλίδιο κόνεως, 3 ml διαλύτη σε προγεμισμένη σύριγγα, 1 ράβδο εμβόλου, 1 προσαρμογέα φιαλιδίου, 1 σετ έγχυσης, 2 ταμπόν με οινόπνευμα, 2 έμπλαστρα και 1 επίθεμα γάζας.</span></p><p class="MsoNormal" style="line-height:normal"></p><p class="MsoNormal" style="line-height:normal;page-break-after:avoid"><b><span lang="EL">Κάτοχος </span></b><b><span lang="EL">Άδειας Κυκλοφορίας και Παρασκευαστής</span></b></p><p class="MsoNormal" style="line-height:normal;page-break-after:avoid"><span lang="EL">Swedish Orphan Biovitrum AB (publ)</span></p><p class="MsoNormal" style="line-height:normal;page-break-after:avoid"><span lang="EL">SE-112 76 Stockholm</span></p><p class="MsoNormal" style="line-height:normal"><span lang="EL">Σουηδία</span></p><p class="MsoNormal" style="line-height:normal"></p><p class="MsoNormal" style="line-height:normal;page-break-after:avoid"><b><span lang="EL">Το παρόν φύλλο οδηγιών χρήσης αναθεωρήθηκε για τελευταία φορά στις </span></b></p><p class="MsoNormal" style="line-height:normal;page-break-after:avoid"></p><p class="MsoNormal" style="line-height:normal"><span lang="EL">Λεπτομερείς πληροφορίες για το φάρμακο αυτό είναι διαθέσιμες στο δικτυακό τόπο του Ευρωπαϊκού Οργανισμού Φαρμάκων: </span><span lang="EN-GB"><a href="http://www.ema.europa.eu/"><span lang="EL">http://www.ema.europa.eu</span></a></span><span lang="EL">.</span></p><p class="MsoNormal" style="line-height:normal"></p><p class="MsoNormal" style="line-height:normal"></p><p class="MsoNormal" style="line-height:normal"><span lang="EL">Γυρίστε το φύλλο οδηγιών χρήσης για οδηγίες για την προετοιμασία και χορήγηση</span></p><p class="MsoNormal" style="line-height:normal"></p><span lang="EL" style='font-size:11.0pt;font-family:"Times New Roman",serif'><br clear="all" style="page-break-before:always"/> </span><br clear="all" style="page-break-before:always"/><p class="MsoNormal" style="line-height:normal;page-break-after:avoid"><b><span lang="EL">Οδηγίες για την προετοιμασία και χορήγηση</span></b></p><p class="MsoNormal" style="line-height:normal;page-break-after:avoid"></p><p class="MsoNormal" style="line-height:normal;page-break-after:avoid"><span lang="EL">Το ELOCTA χορηγείται μέσω ενδοφλέβιας (IV) ένεσης μετά τη διάλυση της κόνεως για ενέσιμο με το διαλύτη που παρέχεται στην προγεμισμένη σύριγγα. Η κάθε συσκευασία του ELOCTA περιέχει:</span></p><p class="MsoNormal" style="line-height:normal;page-break-after:avoid"></p><p class="MsoNormal" style="line-height:normal;page-break-after:avoid"><span style="position:relative;z-index:251641856"><span style="position:absolute; left:72px;top:-21532px;width:867px;height:1px"> <table align="left" cellpadding="0" cellspacing="0"> <tr> <td height="0" width="0"></td> <td width="438"></td> <td width="79"></td> <td width="350"></td> </tr> <tr> <td height="1"></td> <td align="left" valign="top"><img height="1" src="#image0" width="292"/></td> <td></td> <td align="left" valign="top"><img alt="A) 1 Φιαλίδιο κόνεως B) 3 ml διαλύτη σε προγεμισμένη σύριγγα C) 1 Ράβδο εμβόλου  D) 1 Προσαρμογέα φιαλιδίου E) 1 Σετ έγχυσης F) 2 Ταμπόν με οινόπνευμα G) 2 Έμπλαστρα  H) 1 Επίθεμα γάζας " height="1" src="#image1" width="233"/></td> </tr> </table> </span></span></p><p class="MsoNormal" style="line-height:normal;page-break-after:avoid"></p><p class="MsoNormal" style="line-height:normal;page-break-after:avoid"></p><p class="MsoNormal" style="line-height:normal;page-break-after:avoid"></p><p class="MsoNormal" style="line-height:normal;page-break-after:avoid"></p><p class="MsoNormal" style="margin-right:-.1pt;line-height:normal;page-break-after: avoid"></p><p class="MsoNormal" style="margin-right:-.1pt;line-height:normal;page-break-after: avoid"></p><p class="MsoNormal" style="margin-right:-.1pt;line-height:normal"></p><p class="MsoNormal" style="margin-right:-.1pt;line-height:normal"></p><p class="MsoNormal" style="margin-right:-.1pt;line-height:normal"></p><p class="MsoNormal" style="margin-right:-.1pt;line-height:normal"></p><p class="MsoNormal" style="margin-right:-.1pt;line-height:normal"></p><br clear="ALL"/><p class="MsoNormal" style="line-height:normal"><span lang="EL">Το ELOCTA δεν πρέπει να αναμειγνύεται με άλλα ενέσιμα διαλύματα ή διαλύματα προς έγχυση.</span></p><p class="MsoNormal" style="margin-right:-.1pt;line-height:normal"></p><p class="MsoNormal" style="margin-right:-.1pt;line-height:normal;page-break-after: avoid"><span lang="EL">Πλύνετε τα χέρια σας πριν το άνοιγμα της συσκευασίας.</span></p><p class="MsoNormal" style="margin-right:-.1pt;line-height:normal"></p><p class="MsoNormal" style="margin-right:-.1pt;line-height:normal;page-break-after: avoid"><b><span lang="EL">Προετοιμασία:</span></b></p><p class="MsoNormal" style="margin-right:-.1pt;line-height:normal;page-break-after: avoid"></p><p class="MsoNormal" style="line-height:12.0pt"><span lang="EN-GB"><img border="0" height="738" id="Picture 2" src="#image2" width="624"/></span></p><p class="MsoNormal" style="line-height:normal"></p><p class="MsoNormal" style="line-height:normal;page-break-after:avoid"><b><span lang="EL">Χορήγηση (ενδοφλέβια ένεση):</span></b></p><p class="MsoListParagraphCxSpFirst" style="margin-left:0in;page-break-after: avoid"></p><p class="MsoListParagraphCxSpMiddle" style="margin-left:0in;page-break-after: avoid"><span lang="EL" style="font-size:11.0pt">Το ELOCTA πρέπει να χορηγείται με χρήση του σετ έγχυσης (E) που παρέχεται σε αυτήν τη συσκευασία.</span></p><p class="MsoListParagraphCxSpLast" style="margin-left:0in;page-break-after:avoid"></p><p class="MsoNormal" style="line-height:12.0pt;text-autospace:none"><span lang="EN-GB"><img border="0" height="787" id="Picture 1" src="#image3" width="624"/></span></p>
			</div>
		</text>
		
    	    
		
</section>
			    
    	    
		
</section>
			    
    	    
		
</section>
			    
    	    
		
</section>
			    
    	    
		
	
</section>
							<!-- sections can repeat as necessary -->
						</Composition>
					</resource>
				</entry>
				
			</Bundle>
		</resource>
	</entry>
</Bundle>