<?xml version="1.0" encoding="UTF-8"?>
<!-- This is a template for a FHIR resource, and needs items (marked with "${}") replacing to make a real instance -->
<!-- The resulting instance is a Bundle of Bundles, each of which is a document (having a Composition, and supporting resources) -->
<!-- 2020-02-22 -->
<!-- This is for FHIR version R5 Preview 2 (May 2020) -->
<Bundle xmlns="http://hl7.org/fhir">
	<type value="collection"/>
	<!-- Repeat at this level per document -->
	<entry>
		<fullUrl value="urn:uuid:1353efa6-1858-4b62-b3e5-2d150c9fa1bb"/>
		<!-- Top level of each document is a also FHIR Bundle, of type "document"
		 see http://hl7.org/fhir/documents.html, http://hl7.org/fhir/bundle.html
	 	 All the other resources for this document are within this. -->
		<resource>
            <Bundle>
            	<!-- When PUTing, some servers mandate an id here to match the existing id -->
            	<id value="cd96881e-1d8c-4515-8458-ab665199b09c"/>
				<!-- document bundles must have an identifier (bdl-9) -->
				<identifier>
					<!-- possibly different identifier types may be needed here -->
					<system value="http://ema.europa.eu/fhir/identifier/documentid"/>
					<value value="${instance.bundle[n].Identifier}"/>
				</identifier>
				<!-- fixed code -->
				<type value="document" /> 
            	<!-- document bundles must have a date (bdl-10) -->
            	<timestamp value="2021-06-07T15:51:44Z"/>
				<!-- a repeating set of entry elements, each with a FHIR resource inside -->
				<entry>
					<!-- fullUrl is mandatory for each entry in document Bundle. It is a random uuid. http://build.fhir.org/bundle.html#bundle-unique -->
					<fullUrl value="urn:uuid:fd0cebd8-4e9d-4f10-9b2e-967119ff9c6d"/>
					<resource>
						<!-- the first resource must be Composition (bdl-11) -->
						<!-- This is the overall document structure. -->
						<!-- see definition http://hl7.org/fhir/composition.html, and similar for other resources -->
                        <Composition>
                        	<!-- images if requied within html text of this document -->
							
							<contained>
                                <Binary>
                                	<id value="image0"/>
                                	<!-- example format -->
                                	<contentType value="image/png"/>
									<!-- data is base 64 encoded, actual bytes of the image png file -->
                                	<data value=""/>
								</Binary>
							</contained>
							<!-- this exension is necessary per image -->
                <extension url="http://ema.europa.eu/fhir/extension/dummyValidationReference">
                        		<valueReference>
                        			<reference value="#image0"/>
                        		</valueReference>
               </extension>
              
							<contained>
                                <Binary>
                                	<id value="image1"/>
                                	<!-- example format -->
                                	<contentType value="image/png"/>
									<!-- data is base 64 encoded, actual bytes of the image png file -->
                                	<data value=""/>
								</Binary>
							</contained>
							<!-- this exension is necessary per image -->
                <extension url="http://ema.europa.eu/fhir/extension/dummyValidationReference">
                        		<valueReference>
                        			<reference value="#image1"/>
                        		</valueReference>
               </extension>
              
							<contained>
                                <Binary>
                                	<id value="image2"/>
                                	<!-- example format -->
                                	<contentType value="image/png"/>
									<!-- data is base 64 encoded, actual bytes of the image png file -->
                                	<data value=""/>
								</Binary>
							</contained>
							<!-- this exension is necessary per image -->
                <extension url="http://ema.europa.eu/fhir/extension/dummyValidationReference">
                        		<valueReference>
                        			<reference value="#image2"/>
                        		</valueReference>
               </extension>
              
							<contained>
                                <Binary>
                                	<id value="image3"/>
                                	<!-- example format -->
                                	<contentType value="image/png"/>
									<!-- data is base 64 encoded, actual bytes of the image png file -->
                                	<data value=""/>
								</Binary>
							</contained>
							<!-- this exension is necessary per image -->
                <extension url="http://ema.europa.eu/fhir/extension/dummyValidationReference">
                        		<valueReference>
                        			<reference value="#image3"/>
                        		</valueReference>
               </extension>
              
              
              <contained>
                          <Binary>
                            <id value="stylesheet0"/>
                            <!-- example format -->
                            <contentType value="stylesheet/css"/>
                            <!-- data is base 64 encoded, actual bytes of the image png file -->
                            <data value=""/>
                          </Binary>
                        </contained>
                        <!-- this exension is necessary per image -->
                        <extension url="http://ema.europa.eu/fhir/extension/dummyValidationReference">
                          <valueReference>
                            <reference value="#stylesheet0"/>
                          </valueReference>
                        </extension>
              
              <status value="final"/>
							<!-- document type -->
							<type>
								<coding>
									<system value="http://spor.ema.europa.eu/v1/lists/100000155531"/>
									<code value="${document[n].documentTypeCode}"/>
									<display value="${document[n].documentTypeDisplay}"/>
								</coding>
							</type>
							<subject>
								<!-- links to the List resource in this bundle - local url format -->
								<reference value="[]"/> <!-- local url format -->
								<!--reference value="${instance.bundle[n].listUuid}"/--> <!-- uuid url format. Possible alternate format may be neeed -->
							</subject>
                        	<!-- mandatory date of the document -->
                        	<date value="2021-02-01"/>
							<author>
								<identifier>
									<system value="http://spor.ema.europa.eu/v1/locations" />
									<value value="" />
								</identifier>
							</author>
                        	<title value="${document[n].title}"/>
							<relatesTo>
								<code value="appends"/>
								<targetReference>
									<!-- reference to another Composition -->
									<reference value="${document[n].relatesTo}"/>
								</targetReference>
							</relatesTo>
							<!-- main sections of the document, to follow the QRD template -->
	               			
<section>
	
		
			<title value=" "/>
				<code>
					<coding>
						<system value="http://spor.ema.europa.eu/v1/example-sections"/>
						<code value="${document[n].section[n].subsection[n].typeCode}"/>
						<display value="${document[n].section[n].subsection[n].typeDisplay}"/>
					</coding>
				</code>
		<text>
			<status value="additional"/>
			<div xmlns="http://www.w3.org/1999/xhtml">
		    <p class="MsoNormal" style="margin-top:0in;margin-right:70.8pt;margin-bottom: 0in;margin-left:85.05pt;margin-bottom:.0001pt;text-indent:-28.35pt;line-height: normal"></p><p class="MsoNormal" style="margin-top:0in;margin-right:70.8pt;margin-bottom: 0in;margin-left:85.05pt;margin-bottom:.0001pt;text-indent:-35.4pt;line-height: normal"><b><span lang="EL">.                    </span></b></p><p class="MsoNormal" style="margin-left:28.35pt;text-indent:-28.35pt;line-height: normal"></p><p class="MsoNormal" style="margin-top:0in;margin-right:70.9pt;margin-bottom: 0in;margin-left:85.05pt;margin-bottom:.0001pt;text-indent:-35.45pt;line-height: normal"><b><span lang="EL">.                 </span></b></p><p class="MsoNormal" style="margin-left:28.35pt;text-indent:-28.35pt;line-height: normal"></p><p class="MsoNormal" style="margin-top:0in;margin-right:77.95pt;margin-bottom: 0in;margin-left:85.05pt;margin-bottom:.0001pt;text-indent:-35.45pt;line-height: normal"><b><span lang="EL">.               </span></b></p><p class="MsoNormal" style="margin-top:0in;margin-right:77.9pt;margin-bottom: 0in;margin-left:85.05pt;margin-bottom:.0001pt;text-indent:-42.5pt;line-height: normal"></p><p class="MsoNormal" style="margin-top:0in;margin-right:70.8pt;margin-bottom: 0in;margin-left:85.05pt;margin-bottom:.0001pt;text-indent:-35.4pt;line-height: normal"><b><span lang="EL">.                     </span></b></p><p class="MsoNormal" style="margin-right:-.05pt;line-height:normal"></p><b><span lang="EL" style='font-size:11.0pt;font-family:"Times New Roman",serif'><br clear="all" style="page-break-before:always"/> </span></b><span lang="EL" style='font-size:11.0pt;font-family:"Times New Roman",serif'><br clear="all" style="page-break-before:always"/> </span><br clear="all" style="page-break-before:always"/><p class="TitleB"><span lang="EL">.                  </span></p><p class="MsoNormal" style="line-height:normal"></p>
			</div>
		</text>
		
		
    	    
				
			    
						
		               
<section>
			<title value="        "/>
				<code>
					<coding>
						<system value="http://spor.ema.europa.eu/v1/example-sections"/>
						<code value="${document[n].section[n].subsection[n].typeCode}"/>
						<display value="${document[n].section[n].subsection[n].typeDisplay}"/>
					</coding>
				</code>
		<text>
			<status value="additional"/>
			<div xmlns="http://www.w3.org/1999/xhtml">
		    <p class="MsoNormal" style="line-height:normal"></p><p class="MsoNormal" style="line-height:normal"><span lang="EN-GB">Biogen Inc</span></p><p class="MsoNormal" style="line-height:normal"><span lang="EN-GB">250 Binney Street</span></p><p class="MsoNormal" style="line-height:normal"><span lang="EN-GB">Cambridge, MA</span></p><p class="MsoNormal" style="line-height:normal"><span lang="EN-GB">02142</span></p><p class="MsoNormal" style="line-height:normal"><span lang="EL"></span><span lang="EL"></span></p><p class="MsoNormal" style="line-height:normal"></p><p class="eCTD-Table-Text" style="margin:0in;page-break-after:auto"><span lang="EN-GB" style="font-size:11.0pt">Biogen Inc. </span></p><p class="eCTD-Table-Text" style="margin:0in;page-break-after:auto"><span lang="EN-GB" style="font-size:11.0pt">5000 Davis Drive</span></p><p class="eCTD-Table-Text" style="margin:0in;page-break-after:auto"><span lang="EN-GB" style="font-size:11.0pt">Research Triangle Park, NC 27709</span></p><p class="MsoNormal" style="line-height:normal"><span lang="EL"></span><span lang="EL"></span></p><p class="MsoNormal" style="line-height:normal"></p>
			</div>
		</text>
		
    	    

			    
		               
<section>
			<title value="            "/>
				<code>
					<coding>
						<system value="http://spor.ema.europa.eu/v1/example-sections"/>
						<code value="${document[n].section[n].subsection[n].typeCode}"/>
						<display value="${document[n].section[n].subsection[n].typeDisplay}"/>
					</coding>
				</code>
		<text>
			<status value="additional"/>
			<div xmlns="http://www.w3.org/1999/xhtml">
		    <p class="MsoNormal" style="line-height:normal"></p><p class="MsoNormal" style="line-height:normal"><span lang="EL">Swedish Orphan Biovitrum AB (publ)</span></p><p class="MsoNormal" style="line-height:normal"><span lang="EL">Strandbergsgatan 49 </span></p><p class="MsoNormal" style="line-height:normal"><span lang="EL">SE-112 76 Stockholm</span></p><p class="MsoNormal" style="line-height:normal"><span lang="EL"></span></p><p class="MsoNormal" style="margin-left:28.35pt;text-indent:-28.35pt;line-height: normal"></p><p class="MsoNormal" style="line-height:normal"></p><p class="TitleB" style="page-break-after:avoid"><span lang="EL">.                </span></p><p class="MsoNormal" style="line-height:normal;page-break-after:avoid"></p><p class="MsoNormal" style="line-height:normal"><span lang="EL">         (.  :     ,  4.2).</span></p><p class="MsoNormal" style="line-height:normal"></p><p class="MsoNormal" style="line-height:normal"></p><p class="TitleB" style="page-break-after:avoid"><span lang="EL">.            </span></p><p class="MsoNormal" style="line-height:normal;page-break-after:avoid"><i><u><span lang="EL"></span></u></i></p>
			</div>
		</text>
		
    	    

			    
		               
<section>
			<title value="     (PSURs)"/>
				<code>
					<coding>
						<system value="http://spor.ema.europa.eu/v1/example-sections"/>
						<code value="${document[n].section[n].subsection[n].typeCode}"/>
						<display value="${document[n].section[n].subsection[n].typeDisplay}"/>
					</coding>
				</code>
		<text>
			<status value="additional"/>
			<div xmlns="http://www.w3.org/1999/xhtml">
		    <p class="MsoNormal" style="line-height:normal;page-break-after:avoid"></p><p class="MsoNormal" style="line-height:normal"><span lang="EL">      PSURs      </span><span lang="EL">         ( EURD)     7,   107,   2001/83/             <i>. </i></span></p><p class="MsoNormal" style="line-height:normal"></p><p class="MsoNormal" style="line-height:normal"></p><p class="TitleB" style="page-break-after:avoid"><span lang="EL">.                  </span></p><p class="MsoNormal" style="line-height:normal;page-break-after:avoid"><i><u><span lang="EL"></span></u></i></p>
			</div>
		</text>
		
    	    

			    
		               
<section>
			<title value="   ()"/>
				<code>
					<coding>
						<system value="http://spor.ema.europa.eu/v1/example-sections"/>
						<code value="${document[n].section[n].subsection[n].typeCode}"/>
						<display value="${document[n].section[n].subsection[n].typeDisplay}"/>
					</coding>
				</code>
		<text>
			<status value="additional"/>
			<div xmlns="http://www.w3.org/1999/xhtml">
		    <p class="MsoNormal" style="margin-left:.5in;line-height:normal;page-break-after: avoid"></p><p class="MsoNormal" style="line-height:normal"><span lang="EL">    ()                  1.8.2          .</span></p><p class="MsoNormal" style="line-height:normal"></p><p class="MsoNormal" style="line-height:normal;page-break-after:avoid"><span lang="EL">      <i>:</i></span></p><p class="MsoNormal" style="margin-left:35.7pt;text-indent:-17.85pt;line-height: normal;page-break-after:avoid"><span lang="EL" style="font-family:Symbol"></span><span lang="EL">      ,</span></p><p class="MsoNormal" style="margin-left:28.35pt;text-indent:-10.5pt;line-height: normal"><span lang="EL" style="font-family:Symbol"></span><span lang="EL">     ,               -         (   ).</span></p><p class="MsoNormal" style="line-height:normal"></p><b><span lang="EL" style='font-size:11.0pt;font-family:"Times New Roman",serif'><br clear="all" style="page-break-before:always"/> </span></b><span lang="EL" style='font-size:11.0pt;font-family:"Times New Roman",serif'><br clear="all" style="page-break-before:always"/> </span><br clear="all" style="page-break-before:always"/><p class="MsoNormal" style="margin-left:28.35pt;text-indent:-28.35pt;line-height: normal"></p><p class="MsoNormal" style="margin-right:-.1pt;line-height:normal"></p><p class="MsoNormal" style="margin-right:-.05pt;line-height:normal"><u><span lang="EL"></span></u></p><p class="MsoNormal" style="line-height:normal"></p><p class="MsoNormal" style="line-height:normal"></p><p class="MsoNormal" style="line-height:normal"></p><p class="MsoNormal" style="line-height:normal"></p><p class="MsoNormal" style="line-height:normal"></p><p class="MsoNormal" style="line-height:normal"></p><p class="MsoNormal" style="margin-right:-.05pt;line-height:normal"><u><span lang="EL"></span></u></p><p class="MsoNormal" style="line-height:normal"></p><p class="MsoNormal" style="line-height:normal"></p><p class="MsoNormal" style="line-height:normal"></p><p class="MsoNormal" style="line-height:normal"></p><p class="MsoNormal" style="line-height:normal"></p><p class="MsoNormal" style="line-height:normal"></p><p class="MsoNormal" style="line-height:normal"></p><p class="MsoNormal" style="line-height:normal"></p><p class="MsoNormal" style="line-height:normal"></p><p class="MsoNormal" style="line-height:normal"></p><p class="MsoNormal" style="line-height:normal"></p><p class="MsoNormal" style="line-height:normal"></p><p class="MsoNormal" style="line-height:normal"></p><p class="MsoNormal" style="line-height:normal"></p><p align="center" class="MsoNormal" style="text-align:center;line-height:normal"><b><span lang="EL"> III</span></b></p><p align="center" class="MsoNormal" style="text-align:center;line-height:normal"></p><p align="center" class="MsoNormal" style="text-align:center;line-height:normal"><b><span lang="EL">    </span></b></p><span lang="EL" style='font-size:11.0pt;font-family:"Times New Roman",serif'><br clear="all" style="page-break-before:always"/> </span><br clear="all" style="page-break-before:always"/><p class="MsoNormal" style="line-height:normal"></p><p class="MsoNormal" style="line-height:normal"></p><p class="MsoNormal" style="line-height:normal"></p><p class="MsoNormal" style="line-height:normal"></p><p class="MsoNormal" style="line-height:normal"></p><p class="MsoNormal" style="line-height:normal"></p><p class="MsoNormal" style="line-height:normal"></p><p class="MsoNormal" style="line-height:normal"></p><p class="MsoNormal" style="line-height:normal"></p><p class="MsoNormal" style="line-height:normal"></p><p class="MsoNormal" style="line-height:normal"></p><p class="MsoNormal" style="line-height:normal"></p><p class="MsoNormal" style="line-height:normal"></p><p class="MsoNormal" style="line-height:normal"></p><p class="MsoNormal" style="line-height:normal"></p><p class="MsoNormal" style="line-height:normal"></p><p class="MsoNormal" style="line-height:normal"></p><p class="MsoNormal" style="line-height:normal"></p><p class="MsoNormal" style="line-height:normal"></p><p class="MsoNormal" style="line-height:normal"></p><p class="MsoNormal" style="line-height:normal"></p><p class="MsoNormal" style="line-height:normal"></p><p class="MsoNormal" style="line-height:normal"></p><p class="MsoNormal" style="line-height:normal"></p><p class="TitleA"><span lang="EL">A. </span></p><b><span lang="EL" style='font-size:11.0pt;font-family:"Times New Roman",serif'><br clear="all" style="page-break-before:always"/> </span></b><span lang="EL" style='font-size:11.0pt;font-family:"Times New Roman",serif'><br clear="all" style="page-break-before:always"/> </span><br clear="all" style="page-break-before:always"/><div style="border:solid windowtext 1.0pt;padding:1.0pt 4.0pt 1.0pt 4.0pt"> <p class="MsoNormal" style="line-height:normal;border:none;padding:0in"><b><span lang="EL">       </span></b></p> <p class="MsoNormal" style="margin-left:28.35pt;text-indent:-28.35pt;line-height: normal;border:none;padding:0in"></p> <p class="MsoNormal" style="line-height:normal;border:none;padding:0in"><b><span lang="EL"> </span></b></p> </div><p class="MsoNormal" style="line-height:normal"></p><p class="MsoNormal" style="line-height:normal"></p><div style="border:solid windowtext 1.0pt;padding:1.0pt 4.0pt 1.0pt 4.0pt"> <p class="MsoNormal" style="margin-left:28.35pt;text-indent:-28.35pt;line-height: normal;page-break-after:avoid;border:none;padding:0in"><b><span lang="EL">1.          </span></b></p> </div><p class="MsoNormal" style="line-height:normal"></p><p class="MsoNormal" style="line-height:normal"><span lang="EL">ELOCTA </span><span lang="EL">250 IU </span><span lang="EL">     </span></p><p class="MsoNormal" style="line-height:normal"></p><p class="MsoNormal" style="line-height:normal"><span lang="EL">efmoroctocog alfa </span></p><p class="MsoNormal" style="line-height:normal"><span lang="EL">(   VIII,   Fc)</span></p><p class="MsoNormal" style="line-height:normal"></p><p class="MsoNormal" style="line-height:normal"></p><div style="border:solid windowtext 1.0pt;padding:1.0pt 4.0pt 1.0pt 4.0pt"> <p class="MsoNormal" style="margin-left:28.35pt;text-indent:-28.35pt;line-height: normal;page-break-after:avoid;border:none;padding:0in"><b><span lang="EL">2.         () ()</span></b></p> </div><p class="MsoNormal" style="line-height:normal"></p><p class="MsoNormal" style="line-height:normal"><span lang="EL">1    250 IU efmoroctocog alfa (. 83 IU/ml   )</span></p><p class="MsoNormal" style="line-height:normal"></p><p class="MsoNormal" style="line-height:normal"></p><div style="border:solid windowtext 1.0pt;padding:1.0pt 4.0pt 1.0pt 4.0pt"> <p class="MsoNormal" style="margin-left:28.35pt;text-indent:-28.35pt;line-height: normal;page-break-after:avoid;border:none;padding:0in"><b><span lang="EL">3.        </span></b></p> </div><p class="MsoNormal" style="line-height:normal;page-break-after:avoid"></p><p class="MsoNormal" style="line-height:normal;text-autospace:none"><span lang="EL" style="color:black;background:#BFBFBF">:</span><span lang="EL"> ,  , ,   ,  20,   ,  .</span></p><p class="MsoNormal" style="line-height:normal;text-autospace:none"></p><p class="MsoNormal" style="line-height:normal;text-autospace:none"><span lang="EL">:   </span></p><p class="MsoNormal" style="line-height:normal;text-autospace:none"></p><p class="MsoNormal" style="line-height:normal;text-autospace:none"></p><div style="border:solid windowtext 1.0pt;padding:1.0pt 4.0pt 1.0pt 4.0pt"> <p class="MsoNormal" style="margin-left:28.35pt;text-indent:-28.35pt;line-height: normal;page-break-after:avoid;border:none;padding:0in"><b><span lang="EL">4.          </span></b></p> </div><p class="MsoNormal" style="line-height:normal;page-break-after:avoid"></p><p class="MsoNormal" style="line-height:normal;page-break-after:avoid"><span lang="EL" style="color:black;background:#BFBFBF">     </span></p><p class="MsoNormal" style="line-height:normal;page-break-after:avoid"></p><p class="MsoNormal" style="line-height:normal"><span lang="EL">: 1  , 3 ml    , 1  , 1  , 1  , 2   , 2 , 1 .</span></p><p class="MsoNormal" style="line-height:normal"></p><p class="MsoNormal" style="line-height:normal"></p><div style="border:solid windowtext 1.0pt;padding:1.0pt 4.0pt 1.0pt 4.0pt"> <p class="MsoNormal" style="margin-left:28.35pt;text-indent:-28.35pt;line-height: normal;page-break-after:avoid;border:none;padding:0in"><b><span lang="EL">5.         () </span></b></p> </div><p class="MsoNormal" style="line-height:normal"></p><p class="MsoNormal" style="line-height:normal"><span lang="EL"> ,   .</span></p><p class="MsoNormal" style="line-height:normal"><span lang="EL">        .</span></p><p class="MsoNormal" style="line-height:normal"></p><p class="MsoNormal" style="line-height:normal"><span lang="EL">         ELOCTA      QR   smartphone </span><span lang="EL">    </span><span lang="EL">.</span></p><p class="MsoNormal" style="line-height:normal"></p><p class="MsoNormal" style="line-height:normal"><span lang="EL" style="color:black; background:#BFBFBF"> QR   +</span><a name="_Hlk483921855"></a><a href="http://www.eloct-instructions.com/"><span lang="EL">http://www.elocta-instructions.com</span></a></p><p class="MsoNormal" style="line-height:normal"></p><p class="MsoNormal" style="line-height:normal"></p><div style="border:solid windowtext 1.0pt;padding:1.0pt 4.0pt 1.0pt 4.0pt"> <p class="MsoNormal" style="margin-left:28.35pt;text-indent:-28.35pt;line-height: normal;page-break-after:avoid;border:none;padding:0in"><b><span lang="EL">6.                             </span></b></p> </div><p class="MsoNormal" style="line-height:normal;page-break-after:avoid"></p><p class="MsoNormal" style="line-height:normal"><span lang="EL">   ,         .</span></p><p class="MsoNormal" style="line-height:normal"></p><p class="MsoNormal" style="line-height:normal"></p><div style="border:solid windowtext 1.0pt;padding:1.0pt 4.0pt 1.0pt 4.0pt"> <p class="MsoNormal" style="margin-left:28.35pt;text-indent:-28.35pt;line-height: normal;page-break-after:avoid;border:none;padding:0in"><b><span lang="EL">7.       () () (),   ()</span></b></p> </div><p class="MsoNormal" style="line-height:normal"></p><p class="MsoNormal" style="line-height:normal"></p><div style="border:solid windowtext 1.0pt;padding:1.0pt 4.0pt 1.0pt 4.0pt"> <p class="MsoNormal" style="margin-left:28.35pt;text-indent:-28.35pt;line-height: normal;page-break-after:avoid;border:none;padding:0in"><b><span lang="EL">8.        </span></b></p> </div><p class="MsoNormal" style="line-height:normal"></p><p class="MsoNormal" style="line-height:normal"><span lang="EL">EXP</span></p><p class="MsoNormal" style="line-height:normal"></p><p class="MsoNormal" style="line-height:normal"><span lang="EL">  6    .</span></p><p class="MsoNormal" style="line-height:normal"></p><p class="MsoNormal" style="line-height:normal"></p><div style="border:solid windowtext 1.0pt;padding:1.0pt 4.0pt 1.0pt 4.0pt"> <p class="MsoNormal" style="margin-left:28.35pt;text-indent:-28.35pt;line-height: normal;page-break-after:avoid;border:none;padding:0in"><b><span lang="EL">9.         </span></b></p> </div><p class="MsoNormal" style="line-height:normal;page-break-after:avoid"></p><p class="MsoNormal" style="line-height:normal"><span lang="EL">  .</span></p><p class="MsoNormal" style="line-height:normal"><span lang="EL"> .</span></p><p class="MsoNormal" style="line-height:normal"><span lang="EL">           .</span></p><p class="MsoNormal" style="line-height:normal"><span lang="EL">      ( 30C)      6 .            .      :</span></p><p class="MsoNormal" style="line-height:normal"></p><p class="MsoNormal" style="margin-left:28.35pt;text-indent:-28.35pt;line-height: normal"></p><div style="border:solid windowtext 1.0pt;padding:1.0pt 4.0pt 1.0pt 4.0pt"> <p class="MsoNormal" style="margin-left:28.35pt;text-indent:-28.35pt;line-height: normal;page-break-after:avoid;border:none;padding:0in"><b><span lang="EL">10.                     ,  </span></b></p> </div><p class="MsoNormal" style="line-height:normal;page-break-after:avoid"></p><p class="MsoNormal" style="line-height:normal"></p><div style="border:solid windowtext 1.0pt;padding:1.0pt 4.0pt 1.0pt 4.0pt"> <p class="MsoNormal" style="margin-left:28.35pt;text-indent:-28.35pt;line-height: normal;page-break-after:avoid;border:none;padding:0in"><b><span lang="EL">11.           </span></b></p> </div><p class="MsoNormal" style="line-height:normal;page-break-after:avoid"></p><p class="MsoNormal" style="line-height:normal"><span lang="EL">Swedish Orphan Biovitrum AB (publ)</span></p><p class="MsoNormal" style="line-height:normal"><span lang="EL">SE-112 76 Stockholm</span></p><p class="MsoNormal" style="line-height:normal"><span lang="EL"></span></p><p class="MsoNormal" style="line-height:normal"></p><p class="MsoNormal" style="line-height:normal"></p><div style="border:solid windowtext 1.0pt;padding:1.0pt 4.0pt 1.0pt 4.0pt"> <p class="MsoNormal" style="margin-left:28.35pt;text-indent:-28.35pt;line-height: normal;page-break-after:avoid;border:none;padding:0in"><b><span lang="EL">12.     ()  </span></b></p> </div><p class="MsoNormal" style="line-height:normal"></p><p class="MsoNormal" style="line-height:normal"><span lang="EL">EU/1/15/1046/001</span></p><p class="MsoNormal" style="line-height:normal"></p><p class="MsoNormal" style="line-height:normal"></p><div style="border:solid windowtext 1.0pt;padding:1.0pt 4.0pt 1.0pt 4.0pt"> <p class="MsoNormal" style="margin-left:28.35pt;text-indent:-28.35pt;line-height: normal;page-break-after:avoid;border:none;padding:0in"><b><span lang="EL">13.      </span></b></p> </div><p class="MsoNormal" style="line-height:normal"></p><p class="MsoNormal" style="line-height:normal"><span lang="EL">Lot</span></p><p class="MsoNormal" style="line-height:normal"></p><p class="MsoNormal" style="line-height:normal"></p><div style="border:solid windowtext 1.0pt;padding:1.0pt 4.0pt 1.0pt 4.0pt"> <p class="MsoNormal" style="margin-left:28.35pt;text-indent:-28.35pt;line-height: normal;page-break-after:avoid;border:none;padding:0in"><b><span lang="EL">14.         </span></b></p> </div><p class="MsoNormal" style="line-height:normal"></p><p class="MsoNormal" style="line-height:normal"></p><div style="border:solid windowtext 1.0pt;padding:1.0pt 4.0pt 1.0pt 4.0pt"> <p class="MsoNormal" style="margin-left:28.35pt;text-indent:-28.35pt;line-height: normal;page-break-after:avoid;border:none;padding:0in"><b><span lang="EL">15.      </span></b></p> </div><p class="MsoNormal" style="line-height:normal"></p><p class="MsoNormal" style="line-height:normal"></p><p class="MsoNormal" style="line-height:normal"></p><div style="border:solid windowtext 1.0pt;padding:1.0pt 4.0pt 1.0pt 4.0pt"> <p class="MsoNormal" style="margin-left:28.35pt;text-indent:-28.35pt;line-height: normal;page-break-after:avoid;border:none;padding:0in"><b><span lang="EL">16.       BRAILLE</span></b></p> </div><p class="MsoNormal" style="line-height:normal;page-break-after:avoid"></p><p class="MsoNormal" style="line-height:normal"><span lang="EL">ELOCTA 250</span></p><p class="MsoNormal" style="line-height:normal"></p><p class="MsoNormal" style="line-height:normal"></p><div style="border:solid windowtext 1.0pt;padding:1.0pt 4.0pt 1.0pt 4.0pt"> <p class="MsoNormal" style="margin-left:28.35pt;text-indent:-28.35pt;line-height: normal;page-break-after:avoid;border:none;padding:0in"><b><span lang="EL">17.            (2D)</span></b></p> </div><p class="MsoNormal" style="line-height:normal;page-break-after:avoid"></p><p class="MsoNormal" style="line-height:normal"><span lang="EL" style="color:black; background:#D9D9D9">   (2D)       .</span></p><p class="MsoNormal" style="line-height:normal"></p><p class="MsoNormal" style="line-height:normal"></p><div style="border:solid windowtext 1.0pt;padding:1.0pt 4.0pt 1.0pt 4.0pt"> <p class="MsoNormal" style="margin-left:28.35pt;text-indent:-28.35pt;line-height: normal;page-break-after:avoid;border:none;padding:0in"><b><span lang="EL">18.             </span></b></p> </div><p class="MsoNormal" style="line-height:normal;page-break-after:avoid"></p><p class="MsoNormal" style="line-height:normal;page-break-after:avoid"><span lang="EL">PC</span></p><p class="MsoNormal" style="line-height:normal;page-break-after:avoid"><span lang="EL">SN</span></p><p class="MsoNormal" style="line-height:normal"><span lang="EL">NN</span></p><p class="MsoNormal" style="line-height:normal"></p><span lang="EL" style='font-size:11.0pt;font-family:"Times New Roman",serif; color:black;background:#CCCCCC'><br clear="all" style="page-break-before:always"/> </span><br clear="all" style="page-break-before:always"/><p class="MsoNormal" style="line-height:normal"></p><div style="border:solid windowtext 1.0pt;padding:1.0pt 4.0pt 1.0pt 4.0pt"> <p class="MsoNormal" style="line-height:normal;border:none;padding:0in"><b><span lang="EL">         </span></b></p> <p class="MsoNormal" style="line-height:normal;border:none;padding:0in"></p> <p class="MsoNormal" style="line-height:normal;border:none;padding:0in"><b><span lang="EL"> </span></b></p> </div><p class="MsoNormal" style="line-height:normal"></p><p class="MsoNormal" style="line-height:normal"></p><div style="border:solid windowtext 1.0pt;padding:1.0pt 4.0pt 1.0pt 4.0pt"> <p class="MsoNormal" style="margin-left:28.35pt;text-indent:-28.35pt;line-height: normal;page-break-after:avoid;border:none;padding:0in"><b><span lang="EL">1.            () </span></b></p> </div><p class="MsoNormal" style="margin-left:28.35pt;text-indent:-28.35pt;line-height: normal"></p><p class="MsoNormal" style="line-height:normal"><span lang="EL">ELOCTA </span><span lang="EL">250 IU </span><span lang="EL">  </span></p><p class="MsoNormal" style="line-height:normal"></p><p class="MsoNormal" style="line-height:normal"><span lang="EL">efmoroctocog alfa</span></p><p class="MsoNormal" style="line-height:normal"><span lang="EL">   VIII</span></p><p class="MsoNormal" style="line-height:normal"><span lang="EL">IV</span></p><p class="MsoNormal" style="line-height:normal"></p><p class="MsoNormal" style="line-height:normal"></p><div style="border:solid windowtext 1.0pt;padding:1.0pt 4.0pt 1.0pt 4.0pt"> <p class="MsoNormal" style="margin-left:28.35pt;text-indent:-28.35pt;line-height: normal;page-break-after:avoid;border:none;padding:0in"><b><span lang="EL">2.        </span></b></p> </div><p class="MsoNormal" style="line-height:normal"></p><p class="MsoNormal" style="line-height:normal"></p><div style="border:solid windowtext 1.0pt;padding:1.0pt 4.0pt 1.0pt 4.0pt"> <p class="MsoNormal" style="margin-left:28.35pt;text-indent:-28.35pt;line-height: normal;page-break-after:avoid;border:none;padding:0in"><b><span lang="EL">3.        </span></b></p> </div><p class="MsoNormal" style="line-height:normal"></p><p class="MsoNormal" style="line-height:normal"><span lang="EL">EXP</span></p><p class="MsoNormal" style="line-height:normal"></p><p class="MsoNormal" style="line-height:normal"></p><div style="border:solid windowtext 1.0pt;padding:1.0pt 4.0pt 1.0pt 4.0pt"> <p class="MsoNormal" style="margin-left:28.35pt;text-indent:-28.35pt;line-height: normal;page-break-after:avoid;border:none;padding:0in"><b><span lang="EL">4.        </span></b></p> </div><p class="MsoNormal" style="margin-right:5.65pt;line-height:normal"></p><p class="MsoNormal" style="margin-right:5.65pt;line-height:normal"><span lang="EL">Lot</span></p><p class="MsoNormal" style="margin-right:5.65pt;line-height:normal"></p><p class="MsoNormal" style="margin-right:5.65pt;line-height:normal"></p><div style="border:solid windowtext 1.0pt;padding:1.0pt 4.0pt 1.0pt 4.0pt"> <p class="MsoNormal" style="margin-left:28.35pt;text-indent:-28.35pt;line-height: normal;page-break-after:avoid;border:none;padding:0in"><b><span lang="EL">5.         ,     </span></b></p> </div><p class="MsoNormal" style="margin-right:5.65pt;line-height:normal;page-break-after: avoid"></p><p class="MsoNormal" style="line-height:normal"><span lang="EL">250 IU</span></p><p class="MsoNormal" style="margin-right:5.65pt;line-height:normal"></p><p class="MsoNormal" style="margin-right:5.65pt;line-height:normal"></p><div style="border:solid windowtext 1.0pt;padding:1.0pt 4.0pt 1.0pt 4.0pt"> <p class="MsoNormal" style="margin-left:28.35pt;text-indent:-28.35pt;line-height: normal;page-break-after:avoid;border:none;padding:0in"><b><span lang="EL">6.        </span></b></p> </div><p class="MsoNormal" style="margin-right:5.65pt;line-height:normal"></p><span lang="EL" style='font-size:11.0pt;font-family:"Times New Roman",serif'><br clear="all" style="page-break-before:always"/> </span><br clear="all" style="page-break-before:always"/><div style="border:solid windowtext 1.0pt;padding:1.0pt 4.0pt 1.0pt 4.0pt"> <p class="MsoNormal" style="line-height:normal;border:none;padding:0in"><b><span lang="EL">       </span></b></p> <p class="MsoNormal" style="margin-left:28.35pt;text-indent:-28.35pt;line-height: normal;border:none;padding:0in"></p> <p class="MsoNormal" style="line-height:normal;border:none;padding:0in"><b><span lang="EL"> </span></b></p> </div><p class="MsoNormal" style="line-height:normal"></p><p class="MsoNormal" style="line-height:normal"></p><div style="border:solid windowtext 1.0pt;padding:1.0pt 4.0pt 1.0pt 4.0pt"> <p class="MsoNormal" style="margin-left:28.35pt;text-indent:-28.35pt;line-height: normal;page-break-after:avoid;border:none;padding:0in"><b><span lang="EL">1.          </span></b></p> </div><p class="MsoNormal" style="line-height:normal"></p><p class="MsoNormal" style="line-height:normal"><span lang="EL">ELOCTA 500 IU      </span></p><p class="MsoNormal" style="line-height:normal"></p><p class="MsoNormal" style="line-height:normal"><span lang="EL">efmoroctocog alfa </span></p><p class="MsoNormal" style="line-height:normal"><span lang="EL">(   VIII,   Fc)</span></p><p class="MsoNormal" style="line-height:normal"></p><p class="MsoNormal" style="line-height:normal"></p><div style="border:solid windowtext 1.0pt;padding:1.0pt 4.0pt 1.0pt 4.0pt"> <p class="MsoNormal" style="margin-left:28.35pt;text-indent:-28.35pt;line-height: normal;page-break-after:avoid;border:none;padding:0in"><b><span lang="EL">2.         () ()</span></b></p> </div><p class="MsoNormal" style="line-height:normal"></p><p class="MsoNormal" style="line-height:normal"><span lang="EL">1    </span><span lang="EL">500 IU efmoroctocog alfa (. 167 IU/ml   )</span></p><p class="MsoNormal" style="line-height:normal"></p><p class="MsoNormal" style="line-height:normal"></p><div style="border:solid windowtext 1.0pt;padding:1.0pt 4.0pt 1.0pt 4.0pt"> <p class="MsoNormal" style="margin-left:28.35pt;text-indent:-28.35pt;line-height: normal;page-break-after:avoid;border:none;padding:0in"><b><span lang="EL">3.        </span></b></p> </div><p class="MsoNormal" style="line-height:normal;page-break-after:avoid"></p><p class="MsoNormal" style="line-height:normal;text-autospace:none"><span lang="EL" style="color:black;background:#BFBFBF">:</span><span lang="EL"> ,  , ,   ,  20,   ,  .</span></p><p class="MsoNormal" style="line-height:normal;text-autospace:none"></p><p class="MsoNormal" style="line-height:normal;text-autospace:none"><span lang="EL">:   </span></p><p class="MsoNormal" style="line-height:normal;text-autospace:none"></p><p class="MsoNormal" style="line-height:normal;text-autospace:none"></p><div style="border:solid windowtext 1.0pt;padding:1.0pt 4.0pt 1.0pt 4.0pt"> <p class="MsoNormal" style="margin-left:28.35pt;text-indent:-28.35pt;line-height: normal;page-break-after:avoid;border:none;padding:0in"><b><span lang="EL">4.          </span></b></p> </div><p class="MsoNormal" style="line-height:normal;page-break-after:avoid"></p><p class="MsoNormal" style="line-height:normal;page-break-after:avoid"><span lang="EL" style="color:black;background:#BFBFBF">     </span></p><p class="MsoNormal" style="line-height:normal;page-break-after:avoid"></p><p class="MsoNormal" style="line-height:normal"><span lang="EL">: 1  , 3 ml    , 1  , 1  , 1  , 2   , 2 , 1 .</span></p><p class="MsoNormal" style="line-height:normal"></p><p class="MsoNormal" style="line-height:normal"></p><div style="border:solid windowtext 1.0pt;padding:1.0pt 4.0pt 1.0pt 4.0pt"> <p class="MsoNormal" style="margin-left:28.35pt;text-indent:-28.35pt;line-height: normal;page-break-after:avoid;border:none;padding:0in"><b><span lang="EL">5.         () </span></b></p> </div><p class="MsoNormal" style="line-height:normal"></p><p class="MsoNormal" style="line-height:normal"><span lang="EL"> ,   .</span></p><p class="MsoNormal" style="line-height:normal"><span lang="EL">        .</span></p><p class="MsoNormal" style="line-height:normal"></p><p class="MsoNormal" style="line-height:normal"><span lang="EL">         ELOCTA      QR   smartphone </span><span lang="EL">    </span><span lang="EL">.</span></p><p class="MsoNormal" style="line-height:normal"></p><p class="MsoNormal" style="line-height:normal"><span lang="EL" style="color:black; background:#BFBFBF"> QR   +</span><span lang="EN-GB"><a href="http://www.eloct-instructions.com/"><span lang="EL">http://www.elocta-instructions.com</span></a></span></p><p class="MsoNormal" style="line-height:normal"></p><p class="MsoNormal" style="line-height:normal"></p><div style="border:solid windowtext 1.0pt;padding:1.0pt 4.0pt 1.0pt 4.0pt"> <p class="MsoNormal" style="margin-left:28.35pt;text-indent:-28.35pt;line-height: normal;page-break-after:avoid;border:none;padding:0in"><b><span lang="EL">6.                             </span></b></p> </div><p class="MsoNormal" style="line-height:normal;page-break-after:avoid"></p><p class="MsoNormal" style="line-height:normal"><span lang="EL">   ,         .</span></p><p class="MsoNormal" style="line-height:normal"></p><p class="MsoNormal" style="line-height:normal"></p><div style="border:solid windowtext 1.0pt;padding:1.0pt 4.0pt 1.0pt 4.0pt"> <p class="MsoNormal" style="margin-left:28.35pt;text-indent:-28.35pt;line-height: normal;page-break-after:avoid;border:none;padding:0in"><b><span lang="EL">7.       () () (),   ()</span></b></p> </div><p class="MsoNormal" style="line-height:normal"></p><p class="MsoNormal" style="line-height:normal"></p><div style="border:solid windowtext 1.0pt;padding:1.0pt 4.0pt 1.0pt 4.0pt"> <p class="MsoNormal" style="margin-left:28.35pt;text-indent:-28.35pt;line-height: normal;page-break-after:avoid;border:none;padding:0in"><b><span lang="EL">8.        </span></b></p> </div><p class="MsoNormal" style="line-height:normal"></p><p class="MsoNormal" style="line-height:normal"><span lang="EL">EXP</span></p><p class="MsoNormal" style="line-height:normal"></p><p class="MsoNormal" style="line-height:normal"><span lang="EL">  6    .</span></p><p class="MsoNormal" style="line-height:normal"></p><p class="MsoNormal" style="line-height:normal"></p><div style="border:solid windowtext 1.0pt;padding:1.0pt 4.0pt 1.0pt 4.0pt"> <p class="MsoNormal" style="margin-left:28.35pt;text-indent:-28.35pt;line-height: normal;page-break-after:avoid;border:none;padding:0in"><b><span lang="EL">9.         </span></b></p> </div><p class="MsoNormal" style="line-height:normal;page-break-after:avoid"></p><p class="MsoNormal" style="line-height:normal"><span lang="EL">  .</span></p><p class="MsoNormal" style="line-height:normal"><span lang="EL"> .</span></p><p class="MsoNormal" style="line-height:normal"><span lang="EL">           .</span></p><p class="MsoNormal" style="line-height:normal"><span lang="EL">      ( 30C)      6 .            .      :</span></p><p class="MsoNormal" style="line-height:normal"></p><p class="MsoNormal" style="margin-left:28.35pt;text-indent:-28.35pt;line-height: normal"></p><div style="border:solid windowtext 1.0pt;padding:1.0pt 4.0pt 1.0pt 4.0pt"> <p class="MsoNormal" style="margin-left:28.35pt;text-indent:-28.35pt;line-height: normal;page-break-after:avoid;border:none;padding:0in"><b><span lang="EL">10.                     ,  </span></b></p> </div><p class="MsoNormal" style="line-height:normal;page-break-after:avoid"></p><p class="MsoNormal" style="line-height:normal"></p><div style="border:solid windowtext 1.0pt;padding:1.0pt 4.0pt 1.0pt 4.0pt"> <p class="MsoNormal" style="margin-left:28.35pt;text-indent:-28.35pt;line-height: normal;page-break-after:avoid;border:none;padding:0in"><b><span lang="EL">11.           </span></b></p> </div><p class="MsoNormal" style="line-height:normal;page-break-after:avoid"></p><p class="MsoNormal" style="line-height:normal"><span lang="EL">Swedish Orphan Biovitrum AB (publ)</span></p><p class="MsoNormal" style="line-height:normal"><span lang="EL">SE-112 76 Stockholm</span></p><p class="MsoNormal" style="line-height:normal"><span lang="EL"></span></p><p class="MsoNormal" style="line-height:normal"></p><p class="MsoNormal" style="line-height:normal"></p><div style="border:solid windowtext 1.0pt;padding:1.0pt 4.0pt 1.0pt 4.0pt"> <p class="MsoNormal" style="margin-left:28.35pt;text-indent:-28.35pt;line-height: normal;page-break-after:avoid;border:none;padding:0in"><b><span lang="EL">12.     ()  </span></b></p> </div><p class="MsoNormal" style="line-height:normal"></p><p class="MsoNormal" style="line-height:normal"><span lang="EL">EU/1/15/1046/002</span></p><p class="MsoNormal" style="line-height:normal"></p><p class="MsoNormal" style="line-height:normal"></p><div style="border:solid windowtext 1.0pt;padding:1.0pt 4.0pt 1.0pt 4.0pt"> <p class="MsoNormal" style="margin-left:28.35pt;text-indent:-28.35pt;line-height: normal;page-break-after:avoid;border:none;padding:0in"><b><span lang="EL">13.      </span></b></p> </div><p class="MsoNormal" style="line-height:normal"></p><p class="MsoNormal" style="line-height:normal"><span lang="EL">Lot</span></p><p class="MsoNormal" style="line-height:normal"></p><p class="MsoNormal" style="line-height:normal"></p><div style="border:solid windowtext 1.0pt;padding:1.0pt 4.0pt 1.0pt 4.0pt"> <p class="MsoNormal" style="margin-left:28.35pt;text-indent:-28.35pt;line-height: normal;page-break-after:avoid;border:none;padding:0in"><b><span lang="EL">14.         </span></b></p> </div><p class="MsoNormal" style="line-height:normal"></p><p class="MsoNormal" style="line-height:normal"></p><div style="border:solid windowtext 1.0pt;padding:1.0pt 4.0pt 1.0pt 4.0pt"> <p class="MsoNormal" style="margin-left:28.35pt;text-indent:-28.35pt;line-height: normal;page-break-after:avoid;border:none;padding:0in"><b><span lang="EL">15.      </span></b></p> </div><p class="MsoNormal" style="line-height:normal"></p><p class="MsoNormal" style="line-height:normal"></p><p class="MsoNormal" style="line-height:normal"></p><div style="border:solid windowtext 1.0pt;padding:1.0pt 4.0pt 1.0pt 4.0pt"> <p class="MsoNormal" style="margin-left:28.35pt;text-indent:-28.35pt;line-height: normal;page-break-after:avoid;border:none;padding:0in"><b><span lang="EL">16.       BRAILLE</span></b></p> </div><p class="MsoNormal" style="line-height:normal;page-break-after:avoid"></p><p class="MsoNormal" style="line-height:normal"><span lang="EL">ELOCTA 500</span></p><p class="MsoNormal" style="line-height:normal"></p><p class="MsoNormal" style="line-height:normal"></p><div style="border:solid windowtext 1.0pt;padding:1.0pt 4.0pt 1.0pt 4.0pt"> <p class="MsoNormal" style="margin-left:28.35pt;text-indent:-28.35pt;line-height: normal;page-break-after:avoid;border:none;padding:0in"><b><span lang="EL">17.            (2D)</span></b></p> </div><p class="MsoNormal" style="line-height:normal;page-break-after:avoid"></p><p class="MsoNormal" style="line-height:normal"><span lang="EL" style="color:black; background:#D9D9D9">   (2D)       .</span></p><p class="MsoNormal" style="line-height:normal"></p><p class="MsoNormal" style="line-height:normal"></p><div style="border:solid windowtext 1.0pt;padding:1.0pt 4.0pt 1.0pt 4.0pt"> <p class="MsoNormal" style="margin-left:28.35pt;text-indent:-28.35pt;line-height: normal;page-break-after:avoid;border:none;padding:0in"><b><span lang="EL">18.             </span></b></p> </div><p class="MsoNormal" style="line-height:normal;page-break-after:avoid"></p><p class="MsoNormal" style="line-height:normal;page-break-after:avoid"><span lang="EL">PC</span></p><p class="MsoNormal" style="line-height:normal;page-break-after:avoid"><span lang="EL">SN</span></p><p class="MsoNormal" style="line-height:normal"><span lang="EL">NN</span></p><p class="MsoNormal" style="line-height:normal"></p><span lang="EL" style='font-size:11.0pt;font-family:"Times New Roman",serif; color:black;background:#CCCCCC'><br clear="all" style="page-break-before:always"/> </span><br clear="all" style="page-break-before:always"/><p class="MsoNormal" style="line-height:normal"></p><div style="border:solid windowtext 1.0pt;padding:1.0pt 4.0pt 1.0pt 4.0pt"> <p class="MsoNormal" style="line-height:normal;border:none;padding:0in"><b><span lang="EL">         </span></b></p> <p class="MsoNormal" style="line-height:normal;border:none;padding:0in"></p> <p class="MsoNormal" style="line-height:normal;border:none;padding:0in"><b><span lang="EL"> </span></b></p> </div><p class="MsoNormal" style="line-height:normal"></p><p class="MsoNormal" style="line-height:normal"></p><div style="border:solid windowtext 1.0pt;padding:1.0pt 4.0pt 1.0pt 4.0pt"> <p class="MsoNormal" style="margin-left:28.35pt;text-indent:-28.35pt;line-height: normal;page-break-after:avoid;border:none;padding:0in"><b><span lang="EL">1.            () </span></b></p> </div><p class="MsoNormal" style="margin-left:28.35pt;text-indent:-28.35pt;line-height: normal"></p><p class="MsoNormal" style="line-height:normal"><span lang="EL">ELOCTA 500 IU   </span></p><p class="MsoNormal" style="line-height:normal"></p><p class="MsoNormal" style="line-height:normal"><span lang="EL">efmoroctocog alfa</span></p><p class="MsoNormal" style="line-height:normal"><span lang="EL">   VIII</span></p><p class="MsoNormal" style="line-height:normal"><span lang="EL">IV</span></p><p class="MsoNormal" style="line-height:normal"></p><p class="MsoNormal" style="line-height:normal"></p><div style="border:solid windowtext 1.0pt;padding:1.0pt 4.0pt 1.0pt 4.0pt"> <p class="MsoNormal" style="margin-left:28.35pt;text-indent:-28.35pt;line-height: normal;page-break-after:avoid;border:none;padding:0in"><b><span lang="EL">2.        </span></b></p> </div><p class="MsoNormal" style="line-height:normal"></p><p class="MsoNormal" style="line-height:normal"></p><div style="border:solid windowtext 1.0pt;padding:1.0pt 4.0pt 1.0pt 4.0pt"> <p class="MsoNormal" style="margin-left:28.35pt;text-indent:-28.35pt;line-height: normal;page-break-after:avoid;border:none;padding:0in"><b><span lang="EL">3.        </span></b></p> </div><p class="MsoNormal" style="line-height:normal"></p><p class="MsoNormal" style="line-height:normal"><span lang="EL">EXP</span></p><p class="MsoNormal" style="line-height:normal"></p><p class="MsoNormal" style="line-height:normal"></p><div style="border:solid windowtext 1.0pt;padding:1.0pt 4.0pt 1.0pt 4.0pt"> <p class="MsoNormal" style="margin-left:28.35pt;text-indent:-28.35pt;line-height: normal;page-break-after:avoid;border:none;padding:0in"><b><span lang="EL">4.        </span></b></p> </div><p class="MsoNormal" style="margin-right:5.65pt;line-height:normal"></p><p class="MsoNormal" style="margin-right:5.65pt;line-height:normal"><span lang="EL">Lot</span></p><p class="MsoNormal" style="margin-right:5.65pt;line-height:normal"></p><p class="MsoNormal" style="margin-right:5.65pt;line-height:normal"></p><div style="border:solid windowtext 1.0pt;padding:1.0pt 4.0pt 1.0pt 4.0pt"> <p class="MsoNormal" style="margin-left:28.35pt;text-indent:-28.35pt;line-height: normal;page-break-after:avoid;border:none;padding:0in"><b><span lang="EL">5.         ,     </span></b></p> </div><p class="MsoNormal" style="margin-right:5.65pt;line-height:normal;page-break-after: avoid"></p><p class="MsoNormal" style="line-height:normal"><span lang="EL">500 IU</span></p><p class="MsoNormal" style="margin-right:5.65pt;line-height:normal"></p><p class="MsoNormal" style="margin-right:5.65pt;line-height:normal"></p><div style="border:solid windowtext 1.0pt;padding:1.0pt 4.0pt 1.0pt 4.0pt"> <p class="MsoNormal" style="margin-left:28.35pt;text-indent:-28.35pt;line-height: normal;page-break-after:avoid;border:none;padding:0in"><b><span lang="EL">6.        </span></b></p> </div><p class="MsoNormal" style="margin-right:5.65pt;line-height:normal"></p><span lang="EL" style='font-size:11.0pt;font-family:"Times New Roman",serif'><br clear="all" style="page-break-before:always"/> </span><br clear="all" style="page-break-before:always"/><div style="border:solid windowtext 1.0pt;padding:1.0pt 4.0pt 1.0pt 4.0pt"> <p class="MsoNormal" style="line-height:normal;border:none;padding:0in"><b><span lang="EL">       </span></b></p> <p class="MsoNormal" style="margin-left:28.35pt;text-indent:-28.35pt;line-height: normal;border:none;padding:0in"></p> <p class="MsoNormal" style="line-height:normal;border:none;padding:0in"><b><span lang="EL"> </span></b></p> </div><p class="MsoNormal" style="line-height:normal"></p><p class="MsoNormal" style="line-height:normal"></p><div style="border:solid windowtext 1.0pt;padding:1.0pt 4.0pt 1.0pt 4.0pt"> <p class="MsoNormal" style="margin-left:28.35pt;text-indent:-28.35pt;line-height: normal;page-break-after:avoid;border:none;padding:0in"><b><span lang="EL">1.          </span></b></p> </div><p class="MsoNormal" style="line-height:normal"></p><p class="MsoNormal" style="line-height:normal"><span lang="EL">ELOCTA 750 IU      </span></p><p class="MsoNormal" style="line-height:normal"></p><p class="MsoNormal" style="line-height:normal"><span lang="EL">efmoroctocog alfa </span></p><p class="MsoNormal" style="line-height:normal"><span lang="EL">(   VIII,   Fc)</span></p><p class="MsoNormal" style="line-height:normal"></p><p class="MsoNormal" style="line-height:normal"></p><div style="border:solid windowtext 1.0pt;padding:1.0pt 4.0pt 1.0pt 4.0pt"> <p class="MsoNormal" style="margin-left:28.35pt;text-indent:-28.35pt;line-height: normal;page-break-after:avoid;border:none;padding:0in"><b><span lang="EL">2.         () ()</span></b></p> </div><p class="MsoNormal" style="line-height:normal"></p><p class="MsoNormal" style="line-height:normal"><span lang="EL">1    7</span><span lang="EL">50 IU efmoroctocog alfa (. 250 IU/ml   )</span></p><p class="MsoNormal" style="line-height:normal"></p><p class="MsoNormal" style="line-height:normal"></p><div style="border:solid windowtext 1.0pt;padding:1.0pt 4.0pt 1.0pt 4.0pt"> <p class="MsoNormal" style="margin-left:28.35pt;text-indent:-28.35pt;line-height: normal;page-break-after:avoid;border:none;padding:0in"><b><span lang="EL">3.        </span></b></p> </div><p class="MsoNormal" style="line-height:normal;page-break-after:avoid"></p><p class="MsoNormal" style="line-height:normal;text-autospace:none"><span lang="EL" style="color:black;background:#BFBFBF">:</span><span lang="EL"> ,  , ,   ,  20,   ,  .</span></p><p class="MsoNormal" style="line-height:normal;text-autospace:none"></p><p class="MsoNormal" style="line-height:normal;text-autospace:none"><span lang="EL">:   </span></p><p class="MsoNormal" style="line-height:normal;text-autospace:none"></p><p class="MsoNormal" style="line-height:normal;text-autospace:none"></p><div style="border:solid windowtext 1.0pt;padding:1.0pt 4.0pt 1.0pt 4.0pt"> <p class="MsoNormal" style="margin-left:28.35pt;text-indent:-28.35pt;line-height: normal;page-break-after:avoid;border:none;padding:0in"><b><span lang="EL">4.          </span></b></p> </div><p class="MsoNormal" style="line-height:normal;page-break-after:avoid"></p><p class="MsoNormal" style="line-height:normal;page-break-after:avoid"><span lang="EL" style="color:black;background:#BFBFBF">     </span></p><p class="MsoNormal" style="line-height:normal;page-break-after:avoid"></p><p class="MsoNormal" style="line-height:normal"><span lang="EL">: 1  , 3 ml    , 1  , 1  , 1  , 2   , 2 , 1 .</span></p><p class="MsoNormal" style="line-height:normal"></p><p class="MsoNormal" style="line-height:normal"></p><div style="border:solid windowtext 1.0pt;padding:1.0pt 4.0pt 1.0pt 4.0pt"> <p class="MsoNormal" style="margin-left:28.35pt;text-indent:-28.35pt;line-height: normal;page-break-after:avoid;border:none;padding:0in"><b><span lang="EL">5.         () </span></b></p> </div><p class="MsoNormal" style="line-height:normal"></p><p class="MsoNormal" style="line-height:normal"><span lang="EL"> ,   .</span></p><p class="MsoNormal" style="line-height:normal"><span lang="EL">        .</span></p><p class="MsoNormal" style="line-height:normal"></p><p class="MsoNormal" style="line-height:normal"><span lang="EL">         ELOCTA      QR   smartphone </span><span lang="EL">    </span><span lang="EL">.</span></p><p class="MsoNormal" style="line-height:normal"></p><p class="MsoNormal" style="line-height:normal"><span lang="EL" style="color:black; background:#BFBFBF"> QR   +</span><span lang="EN-GB"><a href="http://www.eloct-instructions.com/"><span lang="EL">http://www.elocta-instructions.com</span></a></span></p><p class="MsoNormal" style="line-height:normal"></p><p class="MsoNormal" style="line-height:normal"></p><div style="border:solid windowtext 1.0pt;padding:1.0pt 4.0pt 1.0pt 4.0pt"> <p class="MsoNormal" style="margin-left:28.35pt;text-indent:-28.35pt;line-height: normal;page-break-after:avoid;border:none;padding:0in"><b><span lang="EL">6.                             </span></b></p> </div><p class="MsoNormal" style="line-height:normal;page-break-after:avoid"></p><p class="MsoNormal" style="line-height:normal"><span lang="EL">   ,         .</span></p><p class="MsoNormal" style="line-height:normal"></p><p class="MsoNormal" style="line-height:normal"></p><div style="border:solid windowtext 1.0pt;padding:1.0pt 4.0pt 1.0pt 4.0pt"> <p class="MsoNormal" style="margin-left:28.35pt;text-indent:-28.35pt;line-height: normal;page-break-after:avoid;border:none;padding:0in"><b><span lang="EL">7.       () () (),   ()</span></b></p> </div><p class="MsoNormal" style="line-height:normal"></p><p class="MsoNormal" style="line-height:normal"></p><div style="border:solid windowtext 1.0pt;padding:1.0pt 4.0pt 1.0pt 4.0pt"> <p class="MsoNormal" style="margin-left:28.35pt;text-indent:-28.35pt;line-height: normal;page-break-after:avoid;border:none;padding:0in"><b><span lang="EL">8.        </span></b></p> </div><p class="MsoNormal" style="line-height:normal"></p><p class="MsoNormal" style="line-height:normal"><span lang="EL">EXP</span></p><p class="MsoNormal" style="line-height:normal"></p><p class="MsoNormal" style="line-height:normal"><span lang="EL">  6    .</span></p><p class="MsoNormal" style="line-height:normal"></p><p class="MsoNormal" style="line-height:normal"></p><div style="border:solid windowtext 1.0pt;padding:1.0pt 4.0pt 1.0pt 4.0pt"> <p class="MsoNormal" style="margin-left:28.35pt;text-indent:-28.35pt;line-height: normal;page-break-after:avoid;border:none;padding:0in"><b><span lang="EL">9.         </span></b></p> </div><p class="MsoNormal" style="line-height:normal;page-break-after:avoid"></p><p class="MsoNormal" style="line-height:normal"><span lang="EL">  .</span></p><p class="MsoNormal" style="line-height:normal"><span lang="EL"> .</span></p><p class="MsoNormal" style="line-height:normal"><span lang="EL">           .</span></p><p class="MsoNormal" style="line-height:normal"><span lang="EL">      ( 30C)      6 .            .      :</span></p><p class="MsoNormal" style="line-height:normal"></p><p class="MsoNormal" style="margin-left:28.35pt;text-indent:-28.35pt;line-height: normal"></p><div style="border:solid windowtext 1.0pt;padding:1.0pt 4.0pt 1.0pt 4.0pt"> <p class="MsoNormal" style="margin-left:28.35pt;text-indent:-28.35pt;line-height: normal;page-break-after:avoid;border:none;padding:0in"><b><span lang="EL">10.                     ,  </span></b></p> </div><p class="MsoNormal" style="line-height:normal"></p><p class="MsoNormal" style="line-height:normal"></p><div style="border:solid windowtext 1.0pt;padding:1.0pt 4.0pt 1.0pt 4.0pt"> <p class="MsoNormal" style="margin-left:28.35pt;text-indent:-28.35pt;line-height: normal;page-break-after:avoid;border:none;padding:0in"><b><span lang="EL">11.           </span></b></p> </div><p class="MsoNormal" style="line-height:normal;page-break-after:avoid"></p><p class="MsoNormal" style="line-height:normal"><span lang="EL">Swedish Orphan Biovitrum AB (publ)</span></p><p class="MsoNormal" style="line-height:normal"><span lang="EL">SE-112 76 Stockholm</span></p><p class="MsoNormal" style="line-height:normal"><span lang="EL"></span></p><p class="MsoNormal" style="line-height:normal"></p><p class="MsoNormal" style="line-height:normal"></p><div style="border:solid windowtext 1.0pt;padding:1.0pt 4.0pt 1.0pt 4.0pt"> <p class="MsoNormal" style="margin-left:28.35pt;text-indent:-28.35pt;line-height: normal;page-break-after:avoid;border:none;padding:0in"><b><span lang="EL">12.     ()  </span></b></p> </div><p class="MsoNormal" style="line-height:normal"></p><p class="MsoNormal" style="line-height:normal"><span lang="EL">EU/1/15/1046/003</span></p><p class="MsoNormal" style="line-height:normal"></p><p class="MsoNormal" style="line-height:normal"></p><div style="border:solid windowtext 1.0pt;padding:1.0pt 4.0pt 1.0pt 4.0pt"> <p class="MsoNormal" style="margin-left:28.35pt;text-indent:-28.35pt;line-height: normal;page-break-after:avoid;border:none;padding:0in"><b><span lang="EL">13.      </span></b></p> </div><p class="MsoNormal" style="line-height:normal"></p><p class="MsoNormal" style="line-height:normal"><span lang="EL">Lot</span></p><p class="MsoNormal" style="line-height:normal"></p><p class="MsoNormal" style="line-height:normal"></p><div style="border:solid windowtext 1.0pt;padding:1.0pt 4.0pt 1.0pt 4.0pt"> <p class="MsoNormal" style="margin-left:28.35pt;text-indent:-28.35pt;line-height: normal;page-break-after:avoid;border:none;padding:0in"><b><span lang="EL">14.         </span></b></p> </div><p class="MsoNormal" style="line-height:normal"></p><p class="MsoNormal" style="line-height:normal"></p><div style="border:solid windowtext 1.0pt;padding:1.0pt 4.0pt 1.0pt 4.0pt"> <p class="MsoNormal" style="margin-left:28.35pt;text-indent:-28.35pt;line-height: normal;page-break-after:avoid;border:none;padding:0in"><b><span lang="EL">15.      </span></b></p> </div><p class="MsoNormal" style="line-height:normal"></p><p class="MsoNormal" style="line-height:normal"></p><p class="MsoNormal" style="line-height:normal"></p><div style="border:solid windowtext 1.0pt;padding:1.0pt 4.0pt 1.0pt 4.0pt"> <p class="MsoNormal" style="margin-left:28.35pt;text-indent:-28.35pt;line-height: normal;page-break-after:avoid;border:none;padding:0in"><b><span lang="EL">16.       BRAILLE</span></b></p> </div><p class="MsoNormal" style="line-height:normal;page-break-after:avoid"></p><p class="MsoNormal" style="line-height:normal"><span lang="EL">ELOCTA 750</span></p><p class="MsoNormal" style="line-height:normal"></p><p class="MsoNormal" style="line-height:normal"></p><div style="border:solid windowtext 1.0pt;padding:1.0pt 4.0pt 1.0pt 4.0pt"> <p class="MsoNormal" style="margin-left:28.35pt;text-indent:-28.35pt;line-height: normal;page-break-after:avoid;border:none;padding:0in"><b><span lang="EL">17.            (2D)</span></b></p> </div><p class="MsoNormal" style="line-height:normal;page-break-after:avoid"></p><p class="MsoNormal" style="line-height:normal"><span lang="EL" style="color:black; background:#D9D9D9">   (2D)       .</span></p><p class="MsoNormal" style="line-height:normal"></p><p class="MsoNormal" style="line-height:normal"></p><div style="border:solid windowtext 1.0pt;padding:1.0pt 4.0pt 1.0pt 4.0pt"> <p class="MsoNormal" style="margin-left:28.35pt;text-indent:-28.35pt;line-height: normal;page-break-after:avoid;border:none;padding:0in"><b><span lang="EL">18.             </span></b></p> </div><p class="MsoNormal" style="line-height:normal;page-break-after:avoid"></p><p class="MsoNormal" style="line-height:normal;page-break-after:avoid"><span lang="EL">PC</span></p><p class="MsoNormal" style="line-height:normal;page-break-after:avoid"><span lang="EL">SN</span></p><p class="MsoNormal" style="line-height:normal"><span lang="EL">NN</span></p><p class="MsoNormal" style="line-height:normal"></p><span lang="EL" style='font-size:11.0pt;font-family:"Times New Roman",serif; color:black;background:#CCCCCC'><br clear="all" style="page-break-before:always"/> </span><br clear="all" style="page-break-before:always"/><p class="MsoNormal" style="line-height:normal"></p><div style="border:solid windowtext 1.0pt;padding:1.0pt 4.0pt 1.0pt 4.0pt"> <p class="MsoNormal" style="line-height:normal;border:none;padding:0in"><b><span lang="EL">         </span></b></p> <p class="MsoNormal" style="line-height:normal;border:none;padding:0in"></p> <p class="MsoNormal" style="line-height:normal;border:none;padding:0in"><b><span lang="EL"> </span></b></p> </div><p class="MsoNormal" style="line-height:normal"></p><p class="MsoNormal" style="line-height:normal"></p><div style="border:solid windowtext 1.0pt;padding:1.0pt 4.0pt 1.0pt 4.0pt"> <p class="MsoNormal" style="margin-left:28.35pt;text-indent:-28.35pt;line-height: normal;page-break-after:avoid;border:none;padding:0in"><b><span lang="EL">1.            () </span></b></p> </div><p class="MsoNormal" style="margin-left:28.35pt;text-indent:-28.35pt;line-height: normal"></p><p class="MsoNormal" style="line-height:normal"><span lang="EL">ELOCTA 750 IU   </span></p><p class="MsoNormal" style="line-height:normal"></p><p class="MsoNormal" style="line-height:normal"><span lang="EL">efmoroctocog alfa</span></p><p class="MsoNormal" style="line-height:normal"><span lang="EL">   VIII</span></p><p class="MsoNormal" style="line-height:normal"><span lang="EL">IV</span></p><p class="MsoNormal" style="line-height:normal"></p><p class="MsoNormal" style="line-height:normal"></p><div style="border:solid windowtext 1.0pt;padding:1.0pt 4.0pt 1.0pt 4.0pt"> <p class="MsoNormal" style="margin-left:28.35pt;text-indent:-28.35pt;line-height: normal;page-break-after:avoid;border:none;padding:0in"><b><span lang="EL">2.        </span></b></p> </div><p class="MsoNormal" style="line-height:normal"></p><p class="MsoNormal" style="line-height:normal"></p><div style="border:solid windowtext 1.0pt;padding:1.0pt 4.0pt 1.0pt 4.0pt"> <p class="MsoNormal" style="margin-left:28.35pt;text-indent:-28.35pt;line-height: normal;page-break-after:avoid;border:none;padding:0in"><b><span lang="EL">3.        </span></b></p> </div><p class="MsoNormal" style="line-height:normal"></p><p class="MsoNormal" style="line-height:normal"><span lang="EL">EXP</span></p><p class="MsoNormal" style="line-height:normal"></p><p class="MsoNormal" style="line-height:normal"></p><div style="border:solid windowtext 1.0pt;padding:1.0pt 4.0pt 1.0pt 4.0pt"> <p class="MsoNormal" style="margin-left:28.35pt;text-indent:-28.35pt;line-height: normal;page-break-after:avoid;border:none;padding:0in"><b><span lang="EL">4.        </span></b></p> </div><p class="MsoNormal" style="margin-right:5.65pt;line-height:normal"></p><p class="MsoNormal" style="margin-right:5.65pt;line-height:normal"><span lang="EL">Lot</span></p><p class="MsoNormal" style="margin-right:5.65pt;line-height:normal"></p><p class="MsoNormal" style="margin-right:5.65pt;line-height:normal"></p><div style="border:solid windowtext 1.0pt;padding:1.0pt 4.0pt 1.0pt 4.0pt"> <p class="MsoNormal" style="margin-left:28.35pt;text-indent:-28.35pt;line-height: normal;page-break-after:avoid;border:none;padding:0in"><b><span lang="EL">5.         ,     </span></b></p> </div><p class="MsoNormal" style="margin-right:5.65pt;line-height:normal;page-break-after: avoid"></p><p class="MsoNormal" style="line-height:normal"><span lang="EL">750 IU</span></p><p class="MsoNormal" style="margin-right:5.65pt;line-height:normal"></p><p class="MsoNormal" style="margin-right:5.65pt;line-height:normal"></p><div style="border:solid windowtext 1.0pt;padding:1.0pt 4.0pt 1.0pt 4.0pt"> <p class="MsoNormal" style="margin-left:28.35pt;text-indent:-28.35pt;line-height: normal;page-break-after:avoid;border:none;padding:0in"><b><span lang="EL">6.        </span></b></p> </div><p class="MsoNormal" style="margin-right:5.65pt;line-height:normal"></p><span lang="EL" style='font-size:11.0pt;font-family:"Times New Roman",serif'><br clear="all" style="page-break-before:always"/> </span><br clear="all" style="page-break-before:always"/><div style="border:solid windowtext 1.0pt;padding:1.0pt 4.0pt 1.0pt 4.0pt"> <p class="MsoNormal" style="line-height:normal;border:none;padding:0in"><b><span lang="EL">       </span></b></p> <p class="MsoNormal" style="margin-left:28.35pt;text-indent:-28.35pt;line-height: normal;border:none;padding:0in"></p> <p class="MsoNormal" style="line-height:normal;border:none;padding:0in"><b><span lang="EL"> </span></b></p> </div><p class="MsoNormal" style="line-height:normal"></p><p class="MsoNormal" style="line-height:normal"></p><div style="border:solid windowtext 1.0pt;padding:1.0pt 4.0pt 1.0pt 4.0pt"> <p class="MsoNormal" style="margin-left:28.35pt;text-indent:-28.35pt;line-height: normal;page-break-after:avoid;border:none;padding:0in"><b><span lang="EL">1.          </span></b></p> </div><p class="MsoNormal" style="line-height:normal"></p><p class="MsoNormal" style="line-height:normal"><span lang="EL">ELOCTA 1000 IU      </span></p><p class="MsoNormal" style="line-height:normal"></p><p class="MsoNormal" style="line-height:normal"><span lang="EL">efmoroctocog alfa </span></p><p class="MsoNormal" style="line-height:normal"><span lang="EL">(   VIII,   Fc)</span></p><p class="MsoNormal" style="line-height:normal"></p><p class="MsoNormal" style="line-height:normal"></p><div style="border:solid windowtext 1.0pt;padding:1.0pt 4.0pt 1.0pt 4.0pt"> <p class="MsoNormal" style="margin-left:28.35pt;text-indent:-28.35pt;line-height: normal;page-break-after:avoid;border:none;padding:0in"><b><span lang="EL">2.         () ()</span></b></p> </div><p class="MsoNormal" style="line-height:normal"></p><p class="MsoNormal" style="line-height:normal"><span lang="EL">1    </span><span lang="EL">1000 IU efmoroctocog alfa (. 333 IU/ml   )</span></p><p class="MsoNormal" style="line-height:normal"></p><p class="MsoNormal" style="line-height:normal"></p><div style="border:solid windowtext 1.0pt;padding:1.0pt 4.0pt 1.0pt 4.0pt"> <p class="MsoNormal" style="margin-left:28.35pt;text-indent:-28.35pt;line-height: normal;page-break-after:avoid;border:none;padding:0in"><b><span lang="EL">3.        </span></b></p> </div><p class="MsoNormal" style="line-height:normal;page-break-after:avoid"></p><p class="MsoNormal" style="line-height:normal;text-autospace:none"><span lang="EL" style="color:black;background:#BFBFBF">:</span><span lang="EL"> ,  , ,   ,  20,   ,  .</span></p><p class="MsoNormal" style="line-height:normal;text-autospace:none"></p><p class="MsoNormal" style="line-height:normal;text-autospace:none"><span lang="EL">:   </span></p><p class="MsoNormal" style="line-height:normal;text-autospace:none"></p><p class="MsoNormal" style="line-height:normal;text-autospace:none"></p><div style="border:solid windowtext 1.0pt;padding:1.0pt 4.0pt 1.0pt 4.0pt"> <p class="MsoNormal" style="margin-left:28.35pt;text-indent:-28.35pt;line-height: normal;page-break-after:avoid;border:none;padding:0in"><b><span lang="EL">4.          </span></b></p> </div><p class="MsoNormal" style="line-height:normal;page-break-after:avoid"></p><p class="MsoNormal" style="line-height:normal;page-break-after:avoid"><span lang="EL" style="color:black;background:#BFBFBF">     </span></p><p class="MsoNormal" style="line-height:normal;page-break-after:avoid"></p><p class="MsoNormal" style="line-height:normal"><span lang="EL">: 1  , 3 ml    , 1  , 1  , 1  , 2   , 2 , 1 .</span></p><p class="MsoNormal" style="line-height:normal"></p><p class="MsoNormal" style="line-height:normal"></p><div style="border:solid windowtext 1.0pt;padding:1.0pt 4.0pt 1.0pt 4.0pt"> <p class="MsoNormal" style="margin-left:28.35pt;text-indent:-28.35pt;line-height: normal;page-break-after:avoid;border:none;padding:0in"><b><span lang="EL">5.         () </span></b></p> </div><p class="MsoNormal" style="line-height:normal"></p><p class="MsoNormal" style="line-height:normal"><span lang="EL"> ,   .</span></p><p class="MsoNormal" style="line-height:normal"><span lang="EL">        .</span></p><p class="MsoNormal" style="line-height:normal"></p><p class="MsoNormal" style="line-height:normal"><span lang="EL">         ELOCTA      QR   smartphone </span><span lang="EL">    </span><span lang="EL">.</span></p><p class="MsoNormal" style="line-height:normal"></p><p class="MsoNormal" style="line-height:normal"><span lang="EL" style="color:black; background:#BFBFBF"> QR   +</span><span lang="EN-GB"><a href="http://www.eloct-instructions.com/"><span lang="EL">http://www.elocta-instructions.com</span></a></span></p><p class="MsoNormal" style="line-height:normal"></p><p class="MsoNormal" style="line-height:normal"></p><div style="border:solid windowtext 1.0pt;padding:1.0pt 4.0pt 1.0pt 4.0pt"> <p class="MsoNormal" style="margin-left:28.35pt;text-indent:-28.35pt;line-height: normal;page-break-after:avoid;border:none;padding:0in"><b><span lang="EL">6.                             </span></b></p> </div><p class="MsoNormal" style="line-height:normal;page-break-after:avoid"></p><p class="MsoNormal" style="line-height:normal"><span lang="EL">   ,         .</span></p><p class="MsoNormal" style="line-height:normal"></p><p class="MsoNormal" style="line-height:normal"></p><div style="border:solid windowtext 1.0pt;padding:1.0pt 4.0pt 1.0pt 4.0pt"> <p class="MsoNormal" style="margin-left:28.35pt;text-indent:-28.35pt;line-height: normal;page-break-after:avoid;border:none;padding:0in"><b><span lang="EL">7.       () () (),   ()</span></b></p> </div><p class="MsoNormal" style="line-height:normal"></p><p class="MsoNormal" style="line-height:normal"></p><div style="border:solid windowtext 1.0pt;padding:1.0pt 4.0pt 1.0pt 4.0pt"> <p class="MsoNormal" style="margin-left:28.35pt;text-indent:-28.35pt;line-height: normal;page-break-after:avoid;border:none;padding:0in"><b><span lang="EL">8.        </span></b></p> </div><p class="MsoNormal" style="line-height:normal"></p><p class="MsoNormal" style="line-height:normal"><span lang="EL">EXP</span></p><p class="MsoNormal" style="line-height:normal"></p><p class="MsoNormal" style="line-height:normal"><span lang="EL">  6    .</span></p><p class="MsoNormal" style="line-height:normal"></p><p class="MsoNormal" style="line-height:normal"></p><div style="border:solid windowtext 1.0pt;padding:1.0pt 4.0pt 1.0pt 4.0pt"> <p class="MsoNormal" style="margin-left:28.35pt;text-indent:-28.35pt;line-height: normal;page-break-after:avoid;border:none;padding:0in"><b><span lang="EL">9.         </span></b></p> </div><p class="MsoNormal" style="line-height:normal;page-break-after:avoid"></p><p class="MsoNormal" style="line-height:normal"><span lang="EL">  .</span></p><p class="MsoNormal" style="line-height:normal"><span lang="EL"> .</span></p><p class="MsoNormal" style="line-height:normal"><span lang="EL">           .</span></p><p class="MsoNormal" style="line-height:normal"><span lang="EL">      ( 30C)      6 .            .      :</span></p><p class="MsoNormal" style="line-height:normal"></p><p class="MsoNormal" style="margin-left:28.35pt;text-indent:-28.35pt;line-height: normal"></p><div style="border:solid windowtext 1.0pt;padding:1.0pt 4.0pt 1.0pt 4.0pt"> <p class="MsoNormal" style="margin-left:28.35pt;text-indent:-28.35pt;line-height: normal;page-break-after:avoid;border:none;padding:0in"><b><span lang="EL">10.                     ,  </span></b></p> </div><p class="MsoNormal" style="line-height:normal;page-break-after:avoid"></p><p class="MsoNormal" style="line-height:normal"></p><div style="border:solid windowtext 1.0pt;padding:1.0pt 4.0pt 1.0pt 4.0pt"> <p class="MsoNormal" style="margin-left:28.35pt;text-indent:-28.35pt;line-height: normal;page-break-after:avoid;border:none;padding:0in"><b><span lang="EL">11.           </span></b></p> </div><p class="MsoNormal" style="line-height:normal;page-break-after:avoid"></p><p class="MsoNormal" style="line-height:normal"><span lang="EL">Swedish Orphan Biovitrum AB (publ)</span></p><p class="MsoNormal" style="line-height:normal"><span lang="EL">SE-112 76 Stockholm</span></p><p class="MsoNormal" style="line-height:normal"><span lang="EL"></span></p><p class="MsoNormal" style="line-height:normal"></p><p class="MsoNormal" style="line-height:normal"></p><div style="border:solid windowtext 1.0pt;padding:1.0pt 4.0pt 1.0pt 4.0pt"> <p class="MsoNormal" style="margin-left:28.35pt;text-indent:-28.35pt;line-height: normal;page-break-after:avoid;border:none;padding:0in"><b><span lang="EL">12.     ()  </span></b></p> </div><p class="MsoNormal" style="line-height:normal"></p><p class="MsoNormal" style="line-height:normal"><span lang="EL">EU/1/15/1046/004</span></p><p class="MsoNormal" style="line-height:normal"></p><p class="MsoNormal" style="line-height:normal"></p><div style="border:solid windowtext 1.0pt;padding:1.0pt 4.0pt 1.0pt 4.0pt"> <p class="MsoNormal" style="margin-left:28.35pt;text-indent:-28.35pt;line-height: normal;page-break-after:avoid;border:none;padding:0in"><b><span lang="EL">13.      </span></b></p> </div><p class="MsoNormal" style="line-height:normal"></p><p class="MsoNormal" style="line-height:normal"><span lang="EL">Lot</span></p><p class="MsoNormal" style="line-height:normal"></p><p class="MsoNormal" style="line-height:normal"></p><div style="border:solid windowtext 1.0pt;padding:1.0pt 4.0pt 1.0pt 4.0pt"> <p class="MsoNormal" style="margin-left:28.35pt;text-indent:-28.35pt;line-height: normal;page-break-after:avoid;border:none;padding:0in"><b><span lang="EL">14.         </span></b></p> </div><p class="MsoNormal" style="line-height:normal"></p><p class="MsoNormal" style="line-height:normal"></p><div style="border:solid windowtext 1.0pt;padding:1.0pt 4.0pt 1.0pt 4.0pt"> <p class="MsoNormal" style="margin-left:28.35pt;text-indent:-28.35pt;line-height: normal;page-break-after:avoid;border:none;padding:0in"><b><span lang="EL">15.      </span></b></p> </div><p class="MsoNormal" style="line-height:normal"></p><p class="MsoNormal" style="line-height:normal"></p><p class="MsoNormal" style="line-height:normal"></p><div style="border:solid windowtext 1.0pt;padding:1.0pt 4.0pt 1.0pt 4.0pt"> <p class="MsoNormal" style="margin-left:28.35pt;text-indent:-28.35pt;line-height: normal;page-break-after:avoid;border:none;padding:0in"><b><span lang="EL">16.       BRAILLE</span></b></p> </div><p class="MsoNormal" style="line-height:normal;page-break-after:avoid"></p><p class="MsoNormal" style="line-height:normal"><span lang="EL">ELOCTA 1000</span></p><p class="MsoNormal" style="line-height:normal"></p><p class="MsoNormal" style="line-height:normal"></p><div style="border:solid windowtext 1.0pt;padding:1.0pt 4.0pt 1.0pt 4.0pt"> <p class="MsoNormal" style="margin-left:28.35pt;text-indent:-28.35pt;line-height: normal;page-break-after:avoid;border:none;padding:0in"><b><span lang="EL">17.            (2D)</span></b></p> </div><p class="MsoNormal" style="line-height:normal;page-break-after:avoid"></p><p class="MsoNormal" style="line-height:normal"><span lang="EL" style="color:black; background:#D9D9D9">   (2D)       .</span></p><p class="MsoNormal" style="line-height:normal"></p><p class="MsoNormal" style="line-height:normal"></p><div style="border:solid windowtext 1.0pt;padding:1.0pt 4.0pt 1.0pt 4.0pt"> <p class="MsoNormal" style="margin-left:28.35pt;text-indent:-28.35pt;line-height: normal;page-break-after:avoid;border:none;padding:0in"><b><span lang="EL">18.             </span></b></p> </div><p class="MsoNormal" style="line-height:normal;page-break-after:avoid"></p><p class="MsoNormal" style="line-height:normal;page-break-after:avoid"><span lang="EL">PC</span></p><p class="MsoNormal" style="line-height:normal;page-break-after:avoid"><span lang="EL">SN</span></p><p class="MsoNormal" style="line-height:normal"><span lang="EL">NN</span></p><p class="MsoNormal" style="line-height:normal"></p><span lang="EL" style='font-size:11.0pt;font-family:"Times New Roman",serif; color:black;background:#CCCCCC'><br clear="all" style="page-break-before:always"/> </span><br clear="all" style="page-break-before:always"/><p class="MsoNormal" style="line-height:normal"></p><div style="border:solid windowtext 1.0pt;padding:1.0pt 4.0pt 1.0pt 4.0pt"> <p class="MsoNormal" style="line-height:normal;border:none;padding:0in"><b><span lang="EL">         </span></b></p> <p class="MsoNormal" style="line-height:normal;border:none;padding:0in"></p> <p class="MsoNormal" style="line-height:normal;border:none;padding:0in"><b><span lang="EL"> </span></b></p> </div><p class="MsoNormal" style="line-height:normal"></p><p class="MsoNormal" style="line-height:normal"></p><div style="border:solid windowtext 1.0pt;padding:1.0pt 4.0pt 1.0pt 4.0pt"> <p class="MsoNormal" style="margin-left:28.35pt;text-indent:-28.35pt;line-height: normal;page-break-after:avoid;border:none;padding:0in"><b><span lang="EL">1.            () </span></b></p> </div><p class="MsoNormal" style="margin-left:28.35pt;text-indent:-28.35pt;line-height: normal"></p><p class="MsoNormal" style="line-height:normal"><span lang="EL">ELOCTA 1000 IU   </span></p><p class="MsoNormal" style="line-height:normal"></p><p class="MsoNormal" style="line-height:normal"><span lang="EL">efmoroctocog alfa</span></p><p class="MsoNormal" style="line-height:normal"><span lang="EL">   VIII</span></p><p class="MsoNormal" style="line-height:normal"><span lang="EL">IV</span></p><p class="MsoNormal" style="line-height:normal"></p><p class="MsoNormal" style="line-height:normal"></p><div style="border:solid windowtext 1.0pt;padding:1.0pt 4.0pt 1.0pt 4.0pt"> <p class="MsoNormal" style="margin-left:28.35pt;text-indent:-28.35pt;line-height: normal;page-break-after:avoid;border:none;padding:0in"><b><span lang="EL">2.        </span></b></p> </div><p class="MsoNormal" style="line-height:normal"></p><p class="MsoNormal" style="line-height:normal"></p><div style="border:solid windowtext 1.0pt;padding:1.0pt 4.0pt 1.0pt 4.0pt"> <p class="MsoNormal" style="margin-left:28.35pt;text-indent:-28.35pt;line-height: normal;page-break-after:avoid;border:none;padding:0in"><b><span lang="EL">3.        </span></b></p> </div><p class="MsoNormal" style="line-height:normal"></p><p class="MsoNormal" style="line-height:normal"><span lang="EL">EXP</span></p><p class="MsoNormal" style="line-height:normal"></p><p class="MsoNormal" style="line-height:normal"></p><div style="border:solid windowtext 1.0pt;padding:1.0pt 4.0pt 1.0pt 4.0pt"> <p class="MsoNormal" style="margin-left:28.35pt;text-indent:-28.35pt;line-height: normal;page-break-after:avoid;border:none;padding:0in"><b><span lang="EL">4.        </span></b></p> </div><p class="MsoNormal" style="margin-right:5.65pt;line-height:normal"></p><p class="MsoNormal" style="margin-right:5.65pt;line-height:normal"><span lang="EL">Lot</span></p><p class="MsoNormal" style="margin-right:5.65pt;line-height:normal"></p><p class="MsoNormal" style="margin-right:5.65pt;line-height:normal"></p><div style="border:solid windowtext 1.0pt;padding:1.0pt 4.0pt 1.0pt 4.0pt"> <p class="MsoNormal" style="margin-left:28.35pt;text-indent:-28.35pt;line-height: normal;page-break-after:avoid;border:none;padding:0in"><b><span lang="EL">5.         ,     </span></b></p> </div><p class="MsoNormal" style="margin-right:5.65pt;line-height:normal;page-break-after: avoid"></p><p class="MsoNormal" style="line-height:normal"><span lang="EL">1000 IU</span></p><p class="MsoNormal" style="margin-right:5.65pt;line-height:normal"></p><p class="MsoNormal" style="margin-right:5.65pt;line-height:normal"></p><div style="border:solid windowtext 1.0pt;padding:1.0pt 4.0pt 1.0pt 4.0pt"> <p class="MsoNormal" style="margin-left:28.35pt;text-indent:-28.35pt;line-height: normal;page-break-after:avoid;border:none;padding:0in"><b><span lang="EL">6.        </span></b></p> </div><p class="MsoNormal" style="margin-right:5.65pt;line-height:normal"></p><span lang="EL" style='font-size:11.0pt;font-family:"Times New Roman",serif'><br clear="all" style="page-break-before:always"/> </span><br clear="all" style="page-break-before:always"/><div style="border:solid windowtext 1.0pt;padding:1.0pt 4.0pt 1.0pt 4.0pt"> <p class="MsoNormal" style="line-height:normal;border:none;padding:0in"><b><span lang="EL">       </span></b></p> <p class="MsoNormal" style="margin-left:28.35pt;text-indent:-28.35pt;line-height: normal;border:none;padding:0in"></p> <p class="MsoNormal" style="line-height:normal;border:none;padding:0in"><b><span lang="EL"> </span></b></p> </div><p class="MsoNormal" style="line-height:normal"></p><p class="MsoNormal" style="line-height:normal"></p><div style="border:solid windowtext 1.0pt;padding:1.0pt 4.0pt 1.0pt 4.0pt"> <p class="MsoNormal" style="margin-left:28.35pt;text-indent:-28.35pt;line-height: normal;page-break-after:avoid;border:none;padding:0in"><b><span lang="EL">1.          </span></b></p> </div><p class="MsoNormal" style="line-height:normal"></p><p class="MsoNormal" style="line-height:normal"><span lang="EL">ELOCTA 1500 IU      </span></p><p class="MsoNormal" style="line-height:normal"></p><p class="MsoNormal" style="line-height:normal"><span lang="EL">efmoroctocog alfa </span></p><p class="MsoNormal" style="line-height:normal"><span lang="EL">(   VIII,   Fc)</span></p><p class="MsoNormal" style="line-height:normal"></p><p class="MsoNormal" style="line-height:normal"></p><div style="border:solid windowtext 1.0pt;padding:1.0pt 4.0pt 1.0pt 4.0pt"> <p class="MsoNormal" style="margin-left:28.35pt;text-indent:-28.35pt;line-height: normal;page-break-after:avoid;border:none;padding:0in"><b><span lang="EL">2.         () ()</span></b></p> </div><p class="MsoNormal" style="line-height:normal"></p><p class="MsoNormal" style="line-height:normal"><span lang="EL">1    </span><span lang="EL">1500 IU efmoroctocog alfa (. 500 IU/ml   )</span></p><p class="MsoNormal" style="line-height:normal"></p><p class="MsoNormal" style="line-height:normal"></p><div style="border:solid windowtext 1.0pt;padding:1.0pt 4.0pt 1.0pt 4.0pt"> <p class="MsoNormal" style="margin-left:28.35pt;text-indent:-28.35pt;line-height: normal;page-break-after:avoid;border:none;padding:0in"><b><span lang="EL">3.        </span></b></p> </div><p class="MsoNormal" style="line-height:normal;page-break-after:avoid"></p><p class="MsoNormal" style="line-height:normal;text-autospace:none"><span lang="EL" style="color:black;background:#BFBFBF">:</span><span lang="EL"> ,  , ,   ,  20,   ,  .</span></p><p class="MsoNormal" style="line-height:normal;text-autospace:none"></p><p class="MsoNormal" style="line-height:normal;text-autospace:none"><span lang="EL">:   </span></p><p class="MsoNormal" style="line-height:normal;text-autospace:none"></p><p class="MsoNormal" style="line-height:normal;text-autospace:none"></p><div style="border:solid windowtext 1.0pt;padding:1.0pt 4.0pt 1.0pt 4.0pt"> <p class="MsoNormal" style="margin-left:28.35pt;text-indent:-28.35pt;line-height: normal;page-break-after:avoid;border:none;padding:0in"><b><span lang="EL">4.          </span></b></p> </div><p class="MsoNormal" style="line-height:normal;page-break-after:avoid"></p><p class="MsoNormal" style="line-height:normal;page-break-after:avoid"><span lang="EL" style="color:black;background:#BFBFBF">     </span></p><p class="MsoNormal" style="line-height:normal;page-break-after:avoid"></p><p class="MsoNormal" style="line-height:normal"><span lang="EL">: 1  , 3 ml    , 1  , 1  , 1  , 2   , 2 , 1 .</span></p><p class="MsoNormal" style="line-height:normal"></p><p class="MsoNormal" style="line-height:normal"></p><div style="border:solid windowtext 1.0pt;padding:1.0pt 4.0pt 1.0pt 4.0pt"> <p class="MsoNormal" style="margin-left:28.35pt;text-indent:-28.35pt;line-height: normal;page-break-after:avoid;border:none;padding:0in"><b><span lang="EL">5.         () </span></b></p> </div><p class="MsoNormal" style="line-height:normal"></p><p class="MsoNormal" style="line-height:normal"><span lang="EL"> ,   .</span></p><p class="MsoNormal" style="line-height:normal"><span lang="EL">        .</span></p><p class="MsoNormal" style="line-height:normal"></p><p class="MsoNormal" style="line-height:normal"><span lang="EL">         ELOCTA      QR   smartphone </span><span lang="EL">    </span><span lang="EL">.</span></p><p class="MsoNormal" style="line-height:normal"></p><p class="MsoNormal" style="line-height:normal"><span lang="EL" style="color:black; background:#BFBFBF"> QR   +</span><span lang="EN-GB"><a href="http://www.eloct-instructions.com/"><span lang="EL">http://www.elocta-instructions.com</span></a></span></p><p class="MsoNormal" style="line-height:normal"></p><p class="MsoNormal" style="line-height:normal"></p><div style="border:solid windowtext 1.0pt;padding:1.0pt 4.0pt 1.0pt 4.0pt"> <p class="MsoNormal" style="margin-left:28.35pt;text-indent:-28.35pt;line-height: normal;page-break-after:avoid;border:none;padding:0in"><b><span lang="EL">6.                             </span></b></p> </div><p class="MsoNormal" style="line-height:normal;page-break-after:avoid"></p><p class="MsoNormal" style="line-height:normal"><span lang="EL">   ,         .</span></p><p class="MsoNormal" style="line-height:normal"></p><p class="MsoNormal" style="line-height:normal"></p><div style="border:solid windowtext 1.0pt;padding:1.0pt 4.0pt 1.0pt 4.0pt"> <p class="MsoNormal" style="margin-left:28.35pt;text-indent:-28.35pt;line-height: normal;page-break-after:avoid;border:none;padding:0in"><b><span lang="EL">7.       () () (),   ()</span></b></p> </div><p class="MsoNormal" style="line-height:normal"></p><p class="MsoNormal" style="line-height:normal"></p><div style="border:solid windowtext 1.0pt;padding:1.0pt 4.0pt 1.0pt 4.0pt"> <p class="MsoNormal" style="margin-left:28.35pt;text-indent:-28.35pt;line-height: normal;page-break-after:avoid;border:none;padding:0in"><b><span lang="EL">8.        </span></b></p> </div><p class="MsoNormal" style="line-height:normal"></p><p class="MsoNormal" style="line-height:normal"><span lang="EL">EXP</span></p><p class="MsoNormal" style="line-height:normal"></p><p class="MsoNormal" style="line-height:normal"><span lang="EL">  6    .</span></p><p class="MsoNormal" style="line-height:normal"></p><p class="MsoNormal" style="line-height:normal"></p><div style="border:solid windowtext 1.0pt;padding:1.0pt 4.0pt 1.0pt 4.0pt"> <p class="MsoNormal" style="margin-left:28.35pt;text-indent:-28.35pt;line-height: normal;page-break-after:avoid;border:none;padding:0in"><b><span lang="EL">9.         </span></b></p> </div><p class="MsoNormal" style="line-height:normal;page-break-after:avoid"></p><p class="MsoNormal" style="line-height:normal"><span lang="EL">  .</span></p><p class="MsoNormal" style="line-height:normal"><span lang="EL"> .</span></p><p class="MsoNormal" style="line-height:normal"><span lang="EL">           .</span></p><p class="MsoNormal" style="line-height:normal"><span lang="EL">      ( 30C)      6 .            .      :</span></p><p class="MsoNormal" style="line-height:normal"></p><p class="MsoNormal" style="margin-left:28.35pt;text-indent:-28.35pt;line-height: normal"></p><div style="border:solid windowtext 1.0pt;padding:1.0pt 4.0pt 1.0pt 4.0pt"> <p class="MsoNormal" style="margin-left:28.35pt;text-indent:-28.35pt;line-height: normal;page-break-after:avoid;border:none;padding:0in"><b><span lang="EL">10.                     ,  </span></b></p> </div><p class="MsoNormal" style="line-height:normal;page-break-after:avoid"></p><p class="MsoNormal" style="line-height:normal"></p><div style="border:solid windowtext 1.0pt;padding:1.0pt 4.0pt 1.0pt 4.0pt"> <p class="MsoNormal" style="margin-left:28.35pt;text-indent:-28.35pt;line-height: normal;page-break-after:avoid;border:none;padding:0in"><b><span lang="EL">11.           </span></b></p> </div><p class="MsoNormal" style="line-height:normal;page-break-after:avoid"></p><p class="MsoNormal" style="line-height:normal"><span lang="EL">Swedish Orphan Biovitrum AB (publ)</span></p><p class="MsoNormal" style="line-height:normal"><span lang="EL">SE-112 76 Stockholm</span></p><p class="MsoNormal" style="line-height:normal"><span lang="EL"></span></p><p class="MsoNormal" style="line-height:normal"></p><p class="MsoNormal" style="line-height:normal"></p><div style="border:solid windowtext 1.0pt;padding:1.0pt 4.0pt 1.0pt 4.0pt"> <p class="MsoNormal" style="margin-left:28.35pt;text-indent:-28.35pt;line-height: normal;page-break-after:avoid;border:none;padding:0in"><b><span lang="EL">12.     ()  </span></b></p> </div><p class="MsoNormal" style="line-height:normal"></p><p class="MsoNormal" style="line-height:normal"><span lang="EL">EU/1/15/1046/005</span></p><p class="MsoNormal" style="line-height:normal"></p><p class="MsoNormal" style="line-height:normal"></p><div style="border:solid windowtext 1.0pt;padding:1.0pt 4.0pt 1.0pt 4.0pt"> <p class="MsoNormal" style="margin-left:28.35pt;text-indent:-28.35pt;line-height: normal;page-break-after:avoid;border:none;padding:0in"><b><span lang="EL">13.      </span></b></p> </div><p class="MsoNormal" style="line-height:normal"></p><p class="MsoNormal" style="line-height:normal"><span lang="EL">Lot</span></p><p class="MsoNormal" style="line-height:normal"></p><p class="MsoNormal" style="line-height:normal"></p><div style="border:solid windowtext 1.0pt;padding:1.0pt 4.0pt 1.0pt 4.0pt"> <p class="MsoNormal" style="margin-left:28.35pt;text-indent:-28.35pt;line-height: normal;page-break-after:avoid;border:none;padding:0in"><b><span lang="EL">14.         </span></b></p> </div><p class="MsoNormal" style="line-height:normal"></p><p class="MsoNormal" style="line-height:normal"></p><div style="border:solid windowtext 1.0pt;padding:1.0pt 4.0pt 1.0pt 4.0pt"> <p class="MsoNormal" style="margin-left:28.35pt;text-indent:-28.35pt;line-height: normal;page-break-after:avoid;border:none;padding:0in"><b><span lang="EL">15.      </span></b></p> </div><p class="MsoNormal" style="line-height:normal"></p><p class="MsoNormal" style="line-height:normal"></p><p class="MsoNormal" style="line-height:normal"></p><div style="border:solid windowtext 1.0pt;padding:1.0pt 4.0pt 1.0pt 4.0pt"> <p class="MsoNormal" style="margin-left:28.35pt;text-indent:-28.35pt;line-height: normal;page-break-after:avoid;border:none;padding:0in"><b><span lang="EL">16.       BRAILLE</span></b></p> </div><p class="MsoNormal" style="line-height:normal;page-break-after:avoid"></p><p class="MsoNormal" style="line-height:normal"><span lang="EL">ELOCTA 1500</span></p><p class="MsoNormal" style="line-height:normal"></p><p class="MsoNormal" style="line-height:normal"></p><div style="border:solid windowtext 1.0pt;padding:1.0pt 4.0pt 1.0pt 4.0pt"> <p class="MsoNormal" style="margin-left:28.35pt;text-indent:-28.35pt;line-height: normal;page-break-after:avoid;border:none;padding:0in"><b><span lang="EL">17.            (2D)</span></b></p> </div><p class="MsoNormal" style="line-height:normal;page-break-after:avoid"></p><p class="MsoNormal" style="line-height:normal"><span lang="EL" style="color:black; background:#D9D9D9">   (2D)       .</span></p><p class="MsoNormal" style="line-height:normal"></p><p class="MsoNormal" style="line-height:normal"></p><div style="border:solid windowtext 1.0pt;padding:1.0pt 4.0pt 1.0pt 4.0pt"> <p class="MsoNormal" style="margin-left:28.35pt;text-indent:-28.35pt;line-height: normal;page-break-after:avoid;border:none;padding:0in"><b><span lang="EL">18.             </span></b></p> </div><p class="MsoNormal" style="line-height:normal;page-break-after:avoid"></p><p class="MsoNormal" style="line-height:normal;page-break-after:avoid"><span lang="EL">PC</span></p><p class="MsoNormal" style="line-height:normal;page-break-after:avoid"><span lang="EL">SN</span></p><p class="MsoNormal" style="line-height:normal"><span lang="EL">NN</span></p><p class="MsoNormal" style="line-height:normal"></p><span lang="EL" style='font-size:11.0pt;font-family:"Times New Roman",serif; color:black;background:#CCCCCC'><br clear="all" style="page-break-before:always"/> </span><br clear="all" style="page-break-before:always"/><p class="MsoNormal" style="line-height:normal"></p><div style="border:solid windowtext 1.0pt;padding:1.0pt 4.0pt 1.0pt 4.0pt"> <p class="MsoNormal" style="line-height:normal;border:none;padding:0in"><b><span lang="EL">         </span></b></p> <p class="MsoNormal" style="line-height:normal;border:none;padding:0in"></p> <p class="MsoNormal" style="line-height:normal;border:none;padding:0in"><b><span lang="EL"> </span></b></p> </div><p class="MsoNormal" style="line-height:normal"></p><p class="MsoNormal" style="line-height:normal"></p><div style="border:solid windowtext 1.0pt;padding:1.0pt 4.0pt 1.0pt 4.0pt"> <p class="MsoNormal" style="margin-left:28.35pt;text-indent:-28.35pt;line-height: normal;page-break-after:avoid;border:none;padding:0in"><b><span lang="EL">1.            () </span></b></p> </div><p class="MsoNormal" style="margin-left:28.35pt;text-indent:-28.35pt;line-height: normal"></p><p class="MsoNormal" style="line-height:normal"><span lang="EL">ELOCTA 1500 IU   </span></p><p class="MsoNormal" style="line-height:normal"></p><p class="MsoNormal" style="line-height:normal"><span lang="EL">efmoroctocog alfa</span></p><p class="MsoNormal" style="line-height:normal"><span lang="EL">   VIII</span></p><p class="MsoNormal" style="line-height:normal"><span lang="EL">IV</span></p><p class="MsoNormal" style="line-height:normal"></p><p class="MsoNormal" style="line-height:normal"></p><div style="border:solid windowtext 1.0pt;padding:1.0pt 4.0pt 1.0pt 4.0pt"> <p class="MsoNormal" style="margin-left:28.35pt;text-indent:-28.35pt;line-height: normal;page-break-after:avoid;border:none;padding:0in"><b><span lang="EL">2.        </span></b></p> </div><p class="MsoNormal" style="line-height:normal"></p><p class="MsoNormal" style="line-height:normal"></p><div style="border:solid windowtext 1.0pt;padding:1.0pt 4.0pt 1.0pt 4.0pt"> <p class="MsoNormal" style="margin-left:28.35pt;text-indent:-28.35pt;line-height: normal;page-break-after:avoid;border:none;padding:0in"><b><span lang="EL">3.        </span></b></p> </div><p class="MsoNormal" style="line-height:normal"></p><p class="MsoNormal" style="line-height:normal"><span lang="EL">EXP</span></p><p class="MsoNormal" style="line-height:normal"></p><p class="MsoNormal" style="line-height:normal"></p><div style="border:solid windowtext 1.0pt;padding:1.0pt 4.0pt 1.0pt 4.0pt"> <p class="MsoNormal" style="margin-left:28.35pt;text-indent:-28.35pt;line-height: normal;page-break-after:avoid;border:none;padding:0in"><b><span lang="EL">4.        </span></b></p> </div><p class="MsoNormal" style="margin-right:5.65pt;line-height:normal"></p><p class="MsoNormal" style="margin-right:5.65pt;line-height:normal"><span lang="EL">Lot</span></p><p class="MsoNormal" style="margin-right:5.65pt;line-height:normal"></p><p class="MsoNormal" style="margin-right:5.65pt;line-height:normal"></p><div style="border:solid windowtext 1.0pt;padding:1.0pt 4.0pt 1.0pt 4.0pt"> <p class="MsoNormal" style="margin-left:28.35pt;text-indent:-28.35pt;line-height: normal;page-break-after:avoid;border:none;padding:0in"><b><span lang="EL">5.         ,     </span></b></p> </div><p class="MsoNormal" style="margin-right:5.65pt;line-height:normal;page-break-after: avoid"></p><p class="MsoNormal" style="line-height:normal"><span lang="EL">1500 IU</span></p><p class="MsoNormal" style="margin-right:5.65pt;line-height:normal"></p><p class="MsoNormal" style="margin-right:5.65pt;line-height:normal"></p><div style="border:solid windowtext 1.0pt;padding:1.0pt 4.0pt 1.0pt 4.0pt"> <p class="MsoNormal" style="margin-left:28.35pt;text-indent:-28.35pt;line-height: normal;page-break-after:avoid;border:none;padding:0in"><b><span lang="EL">6.        </span></b></p> </div><p class="MsoNormal" style="margin-right:5.65pt;line-height:normal"></p><span lang="EL" style='font-size:11.0pt;font-family:"Times New Roman",serif'><br clear="all" style="page-break-before:always"/> </span><br clear="all" style="page-break-before:always"/><div style="border:solid windowtext 1.0pt;padding:1.0pt 4.0pt 1.0pt 4.0pt"> <p class="MsoNormal" style="line-height:normal;border:none;padding:0in"><b><span lang="EL">       </span></b></p> <p class="MsoNormal" style="margin-left:28.35pt;text-indent:-28.35pt;line-height: normal;border:none;padding:0in"></p> <p class="MsoNormal" style="line-height:normal;border:none;padding:0in"><b><span lang="EL"> </span></b></p> </div><p class="MsoNormal" style="line-height:normal"></p><p class="MsoNormal" style="line-height:normal"></p><div style="border:solid windowtext 1.0pt;padding:1.0pt 4.0pt 1.0pt 4.0pt"> <p class="MsoNormal" style="margin-left:28.35pt;text-indent:-28.35pt;line-height: normal;page-break-after:avoid;border:none;padding:0in"><b><span lang="EL">1.          </span></b></p> </div><p class="MsoNormal" style="line-height:normal"></p><p class="MsoNormal" style="line-height:normal"><span lang="EL">ELOCTA 2000 IU      </span></p><p class="MsoNormal" style="line-height:normal"></p><p class="MsoNormal" style="line-height:normal"><span lang="EL">efmoroctocog alfa </span></p><p class="MsoNormal" style="line-height:normal"><span lang="EL">(   VIII,   Fc)</span></p><p class="MsoNormal" style="line-height:normal"></p><p class="MsoNormal" style="line-height:normal"></p><div style="border:solid windowtext 1.0pt;padding:1.0pt 4.0pt 1.0pt 4.0pt"> <p class="MsoNormal" style="margin-left:28.35pt;text-indent:-28.35pt;line-height: normal;page-break-after:avoid;border:none;padding:0in"><b><span lang="EL">2.         () ()</span></b></p> </div><p class="MsoNormal" style="line-height:normal"></p><p class="MsoNormal" style="line-height:normal"><span lang="EL">1    </span><span lang="EL">2000 IU efmoroctocog alfa (. 667 IU/ml   )</span></p><p class="MsoNormal" style="line-height:normal"></p><p class="MsoNormal" style="line-height:normal"></p><div style="border:solid windowtext 1.0pt;padding:1.0pt 4.0pt 1.0pt 4.0pt"> <p class="MsoNormal" style="margin-left:28.35pt;text-indent:-28.35pt;line-height: normal;page-break-after:avoid;border:none;padding:0in"><b><span lang="EL">3.        </span></b></p> </div><p class="MsoNormal" style="line-height:normal;page-break-after:avoid"></p><p class="MsoNormal" style="line-height:normal;text-autospace:none"><span lang="EL" style="color:black;background:#BFBFBF">:</span><span lang="EL"> ,  , ,   ,  20,   ,  .</span></p><p class="MsoNormal" style="line-height:normal;text-autospace:none"></p><p class="MsoNormal" style="line-height:normal;text-autospace:none"><span lang="EL">:   </span></p><p class="MsoNormal" style="line-height:normal;text-autospace:none"></p><p class="MsoNormal" style="line-height:normal;text-autospace:none"></p><div style="border:solid windowtext 1.0pt;padding:1.0pt 4.0pt 1.0pt 4.0pt"> <p class="MsoNormal" style="margin-left:28.35pt;text-indent:-28.35pt;line-height: normal;page-break-after:avoid;border:none;padding:0in"><b><span lang="EL">4.          </span></b></p> </div><p class="MsoNormal" style="line-height:normal;page-break-after:avoid"></p><p class="MsoNormal" style="line-height:normal;page-break-after:avoid"><span lang="EL" style="color:black;background:#BFBFBF">     </span></p><p class="MsoNormal" style="line-height:normal;page-break-after:avoid"></p><p class="MsoNormal" style="line-height:normal"><span lang="EL">: 1  , 3 ml    , 1  , 1  , 1  , 2   , 2 , 1 .</span></p><p class="MsoNormal" style="line-height:normal"></p><p class="MsoNormal" style="line-height:normal"></p><div style="border:solid windowtext 1.0pt;padding:1.0pt 4.0pt 1.0pt 4.0pt"> <p class="MsoNormal" style="margin-left:28.35pt;text-indent:-28.35pt;line-height: normal;page-break-after:avoid;border:none;padding:0in"><b><span lang="EL">5.         () </span></b></p> </div><p class="MsoNormal" style="line-height:normal"></p><p class="MsoNormal" style="line-height:normal"><span lang="EL"> ,   .</span></p><p class="MsoNormal" style="line-height:normal"><span lang="EL">        .</span></p><p class="MsoNormal" style="line-height:normal"></p><p class="MsoNormal" style="line-height:normal"><span lang="EL">         ELOCTA      QR   smartphone </span><span lang="EL">    </span><span lang="EL">.</span></p><p class="MsoNormal" style="line-height:normal"></p><p class="MsoNormal" style="line-height:normal"><span lang="EL" style="color:black; background:#BFBFBF"> QR   +</span><span lang="EN-GB"><a href="http://www.eloct-instructions.com/"><span lang="EL">http://www.elocta-instructions.com</span></a></span></p><p class="MsoNormal" style="line-height:normal"></p><p class="MsoNormal" style="line-height:normal"></p><div style="border:solid windowtext 1.0pt;padding:1.0pt 4.0pt 1.0pt 4.0pt"> <p class="MsoNormal" style="margin-left:28.35pt;text-indent:-28.35pt;line-height: normal;page-break-after:avoid;border:none;padding:0in"><b><span lang="EL">6.                             </span></b></p> </div><p class="MsoNormal" style="line-height:normal;page-break-after:avoid"></p><p class="MsoNormal" style="line-height:normal"><span lang="EL">   ,         .</span></p><p class="MsoNormal" style="line-height:normal"></p><p class="MsoNormal" style="line-height:normal"></p><div style="border:solid windowtext 1.0pt;padding:1.0pt 4.0pt 1.0pt 4.0pt"> <p class="MsoNormal" style="margin-left:28.35pt;text-indent:-28.35pt;line-height: normal;page-break-after:avoid;border:none;padding:0in"><b><span lang="EL">7.       () () (),   ()</span></b></p> </div><p class="MsoNormal" style="line-height:normal"></p><p class="MsoNormal" style="line-height:normal"></p><div style="border:solid windowtext 1.0pt;padding:1.0pt 4.0pt 1.0pt 4.0pt"> <p class="MsoNormal" style="margin-left:28.35pt;text-indent:-28.35pt;line-height: normal;page-break-after:avoid;border:none;padding:0in"><b><span lang="EL">8.        </span></b></p> </div><p class="MsoNormal" style="line-height:normal"></p><p class="MsoNormal" style="line-height:normal"><span lang="EL">EXP</span></p><p class="MsoNormal" style="line-height:normal"></p><p class="MsoNormal" style="line-height:normal"><span lang="EL">  6    .</span></p><p class="MsoNormal" style="line-height:normal"></p><p class="MsoNormal" style="line-height:normal"></p><div style="border:solid windowtext 1.0pt;padding:1.0pt 4.0pt 1.0pt 4.0pt"> <p class="MsoNormal" style="margin-left:28.35pt;text-indent:-28.35pt;line-height: normal;page-break-after:avoid;border:none;padding:0in"><b><span lang="EL">9.         </span></b></p> </div><p class="MsoNormal" style="line-height:normal;page-break-after:avoid"></p><p class="MsoNormal" style="line-height:normal"><span lang="EL">  .</span></p><p class="MsoNormal" style="line-height:normal"><span lang="EL"> .</span></p><p class="MsoNormal" style="line-height:normal"><span lang="EL">           .</span></p><p class="MsoNormal" style="line-height:normal"><span lang="EL">      ( 30C)      6 .            .      :</span></p><p class="MsoNormal" style="line-height:normal"></p><p class="MsoNormal" style="margin-left:28.35pt;text-indent:-28.35pt;line-height: normal"></p><div style="border:solid windowtext 1.0pt;padding:1.0pt 4.0pt 1.0pt 4.0pt"> <p class="MsoNormal" style="margin-left:28.35pt;text-indent:-28.35pt;line-height: normal;page-break-after:avoid;border:none;padding:0in"><b><span lang="EL">10.                     ,  </span></b></p> </div><p class="MsoNormal" style="line-height:normal;page-break-after:avoid"></p><p class="MsoNormal" style="line-height:normal"></p><div style="border:solid windowtext 1.0pt;padding:1.0pt 4.0pt 1.0pt 4.0pt"> <p class="MsoNormal" style="margin-left:28.35pt;text-indent:-28.35pt;line-height: normal;page-break-after:avoid;border:none;padding:0in"><b><span lang="EL">11.           </span></b></p> </div><p class="MsoNormal" style="line-height:normal;page-break-after:avoid"></p><p class="MsoNormal" style="line-height:normal"><span lang="EL">Swedish Orphan Biovitrum AB (publ)</span></p><p class="MsoNormal" style="line-height:normal"><span lang="EL">SE-112 76 Stockholm</span></p><p class="MsoNormal" style="line-height:normal"><span lang="EL"></span></p><p class="MsoNormal" style="line-height:normal"></p><p class="MsoNormal" style="line-height:normal"></p><div style="border:solid windowtext 1.0pt;padding:1.0pt 4.0pt 1.0pt 4.0pt"> <p class="MsoNormal" style="margin-left:28.35pt;text-indent:-28.35pt;line-height: normal;page-break-after:avoid;border:none;padding:0in"><b><span lang="EL">12.     ()  </span></b></p> </div><p class="MsoNormal" style="line-height:normal"></p><p class="MsoNormal" style="line-height:normal"><span lang="EL">EU/1/15/1046/006</span></p><p class="MsoNormal" style="line-height:normal"></p><p class="MsoNormal" style="line-height:normal"></p><div style="border:solid windowtext 1.0pt;padding:1.0pt 4.0pt 1.0pt 4.0pt"> <p class="MsoNormal" style="margin-left:28.35pt;text-indent:-28.35pt;line-height: normal;page-break-after:avoid;border:none;padding:0in"><b><span lang="EL">13.      </span></b></p> </div><p class="MsoNormal" style="line-height:normal"></p><p class="MsoNormal" style="line-height:normal"><span lang="EL">Lot</span></p><p class="MsoNormal" style="line-height:normal"></p><p class="MsoNormal" style="line-height:normal"></p><div style="border:solid windowtext 1.0pt;padding:1.0pt 4.0pt 1.0pt 4.0pt"> <p class="MsoNormal" style="margin-left:28.35pt;text-indent:-28.35pt;line-height: normal;page-break-after:avoid;border:none;padding:0in"><b><span lang="EL">14.         </span></b></p> </div><p class="MsoNormal" style="line-height:normal"></p><p class="MsoNormal" style="line-height:normal"></p><div style="border:solid windowtext 1.0pt;padding:1.0pt 4.0pt 1.0pt 4.0pt"> <p class="MsoNormal" style="margin-left:28.35pt;text-indent:-28.35pt;line-height: normal;page-break-after:avoid;border:none;padding:0in"><b><span lang="EL">15.      </span></b></p> </div><p class="MsoNormal" style="line-height:normal"></p><p class="MsoNormal" style="line-height:normal"></p><p class="MsoNormal" style="line-height:normal"></p><div style="border:solid windowtext 1.0pt;padding:1.0pt 4.0pt 1.0pt 4.0pt"> <p class="MsoNormal" style="margin-left:28.35pt;text-indent:-28.35pt;line-height: normal;page-break-after:avoid;border:none;padding:0in"><b><span lang="EL">16.       BRAILLE</span></b></p> </div><p class="MsoNormal" style="line-height:normal;page-break-after:avoid"></p><p class="MsoNormal" style="line-height:normal"><span lang="EL">ELOCTA 2000</span></p><p class="MsoNormal" style="line-height:normal"></p><p class="MsoNormal" style="line-height:normal"></p><div style="border:solid windowtext 1.0pt;padding:1.0pt 4.0pt 1.0pt 4.0pt"> <p class="MsoNormal" style="margin-left:28.35pt;text-indent:-28.35pt;line-height: normal;page-break-after:avoid;border:none;padding:0in"><b><span lang="EL">17.            (2D)</span></b></p> </div><p class="MsoNormal" style="line-height:normal;page-break-after:avoid"></p><p class="MsoNormal" style="line-height:normal"><span lang="EL" style="color:black; background:#D9D9D9">   (2D)       .</span></p><p class="MsoNormal" style="line-height:normal"></p><p class="MsoNormal" style="line-height:normal"></p><div style="border:solid windowtext 1.0pt;padding:1.0pt 4.0pt 1.0pt 4.0pt"> <p class="MsoNormal" style="margin-left:28.35pt;text-indent:-28.35pt;line-height: normal;page-break-after:avoid;border:none;padding:0in"><b><span lang="EL">18.             </span></b></p> </div><p class="MsoNormal" style="line-height:normal;page-break-after:avoid"></p><p class="MsoNormal" style="line-height:normal;page-break-after:avoid"><span lang="EL">PC</span></p><p class="MsoNormal" style="line-height:normal;page-break-after:avoid"><span lang="EL">SN</span></p><p class="MsoNormal" style="line-height:normal"><span lang="EL">NN</span></p><p class="MsoNormal" style="line-height:normal"></p><span lang="EL" style='font-size:11.0pt;font-family:"Times New Roman",serif; color:black;background:#CCCCCC'><br clear="all" style="page-break-before:always"/> </span><br clear="all" style="page-break-before:always"/><p class="MsoNormal" style="line-height:normal"></p><div style="border:solid windowtext 1.0pt;padding:1.0pt 4.0pt 1.0pt 4.0pt"> <p class="MsoNormal" style="line-height:normal;border:none;padding:0in"><b><span lang="EL">         </span></b></p> <p class="MsoNormal" style="line-height:normal;border:none;padding:0in"></p> <p class="MsoNormal" style="line-height:normal;border:none;padding:0in"><b><span lang="EL"> </span></b></p> </div><p class="MsoNormal" style="line-height:normal"></p><p class="MsoNormal" style="line-height:normal"></p><div style="border:solid windowtext 1.0pt;padding:1.0pt 4.0pt 1.0pt 4.0pt"> <p class="MsoNormal" style="margin-left:28.35pt;text-indent:-28.35pt;line-height: normal;page-break-after:avoid;border:none;padding:0in"><b><span lang="EL">1.            () </span></b></p> </div><p class="MsoNormal" style="margin-left:28.35pt;text-indent:-28.35pt;line-height: normal"></p><p class="MsoNormal" style="line-height:normal"><span lang="EL">ELOCTA 2000 IU   </span></p><p class="MsoNormal" style="line-height:normal"></p><p class="MsoNormal" style="line-height:normal"><span lang="EL">efmoroctocog alfa</span></p><p class="MsoNormal" style="line-height:normal"><span lang="EL">   VIII</span></p><p class="MsoNormal" style="line-height:normal"><span lang="EL">IV</span></p><p class="MsoNormal" style="line-height:normal"></p><p class="MsoNormal" style="line-height:normal"></p><div style="border:solid windowtext 1.0pt;padding:1.0pt 4.0pt 1.0pt 4.0pt"> <p class="MsoNormal" style="margin-left:28.35pt;text-indent:-28.35pt;line-height: normal;page-break-after:avoid;border:none;padding:0in"><b><span lang="EL">2.        </span></b></p> </div><p class="MsoNormal" style="line-height:normal"></p><p class="MsoNormal" style="line-height:normal"></p><div style="border:solid windowtext 1.0pt;padding:1.0pt 4.0pt 1.0pt 4.0pt"> <p class="MsoNormal" style="margin-left:28.35pt;text-indent:-28.35pt;line-height: normal;page-break-after:avoid;border:none;padding:0in"><b><span lang="EL">3.        </span></b></p> </div><p class="MsoNormal" style="line-height:normal"></p><p class="MsoNormal" style="line-height:normal"><span lang="EL">EXP</span></p><p class="MsoNormal" style="line-height:normal"></p><p class="MsoNormal" style="line-height:normal"></p><div style="border:solid windowtext 1.0pt;padding:1.0pt 4.0pt 1.0pt 4.0pt"> <p class="MsoNormal" style="margin-left:28.35pt;text-indent:-28.35pt;line-height: normal;page-break-after:avoid;border:none;padding:0in"><b><span lang="EL">4.        </span></b></p> </div><p class="MsoNormal" style="margin-right:5.65pt;line-height:normal"></p><p class="MsoNormal" style="margin-right:5.65pt;line-height:normal"><span lang="EL">Lot</span></p><p class="MsoNormal" style="margin-right:5.65pt;line-height:normal"></p><p class="MsoNormal" style="margin-right:5.65pt;line-height:normal"></p><div style="border:solid windowtext 1.0pt;padding:1.0pt 4.0pt 1.0pt 4.0pt"> <p class="MsoNormal" style="margin-left:28.35pt;text-indent:-28.35pt;line-height: normal;page-break-after:avoid;border:none;padding:0in"><b><span lang="EL">5.         ,     </span></b></p> </div><p class="MsoNormal" style="margin-right:5.65pt;line-height:normal;page-break-after: avoid"></p><p class="MsoNormal" style="line-height:normal"><span lang="EL">2000 IU</span></p><p class="MsoNormal" style="margin-right:5.65pt;line-height:normal"></p><p class="MsoNormal" style="margin-right:5.65pt;line-height:normal"></p><div style="border:solid windowtext 1.0pt;padding:1.0pt 4.0pt 1.0pt 4.0pt"> <p class="MsoNormal" style="margin-left:28.35pt;text-indent:-28.35pt;line-height: normal;page-break-after:avoid;border:none;padding:0in"><b><span lang="EL">6.        </span></b></p> </div><p class="MsoNormal" style="margin-right:5.65pt;line-height:normal"></p><span lang="EL" style='font-size:11.0pt;font-family:"Times New Roman",serif'><br clear="all" style="page-break-before:always"/> </span><br clear="all" style="page-break-before:always"/><div style="border:solid windowtext 1.0pt;padding:1.0pt 4.0pt 1.0pt 4.0pt"> <p class="MsoNormal" style="line-height:normal;border:none;padding:0in"><b><span lang="EL">       </span></b></p> <p class="MsoNormal" style="margin-left:28.35pt;text-indent:-28.35pt;line-height: normal;border:none;padding:0in"></p> <p class="MsoNormal" style="line-height:normal;border:none;padding:0in"><b><span lang="EL"> </span></b></p> </div><p class="MsoNormal" style="line-height:normal"></p><p class="MsoNormal" style="line-height:normal"></p><div style="border:solid windowtext 1.0pt;padding:1.0pt 4.0pt 1.0pt 4.0pt"> <p class="MsoNormal" style="margin-left:28.35pt;text-indent:-28.35pt;line-height: normal;page-break-after:avoid;border:none;padding:0in"><b><span lang="EL">1.          </span></b></p> </div><p class="MsoNormal" style="line-height:normal"></p><p class="MsoNormal" style="line-height:normal"><span lang="EL">ELOCTA 3000 IU      </span></p><p class="MsoNormal" style="line-height:normal"></p><p class="MsoNormal" style="line-height:normal"><span lang="EL">efmoroctocog alfa </span></p><p class="MsoNormal" style="line-height:normal"><span lang="EL">(   VIII,   Fc)</span></p><p class="MsoNormal" style="line-height:normal"></p><p class="MsoNormal" style="line-height:normal"></p><div style="border:solid windowtext 1.0pt;padding:1.0pt 4.0pt 1.0pt 4.0pt"> <p class="MsoNormal" style="margin-left:28.35pt;text-indent:-28.35pt;line-height: normal;page-break-after:avoid;border:none;padding:0in"><b><span lang="EL">2.         () ()</span></b></p> </div><p class="MsoNormal" style="line-height:normal"></p><p class="MsoNormal" style="line-height:normal"><span lang="EL">1    </span><span lang="EL">3000 IU efmoroctocog alfa (. 1.000 IU/ml   )</span></p><p class="MsoNormal" style="line-height:normal"></p><p class="MsoNormal" style="line-height:normal"></p><div style="border:solid windowtext 1.0pt;padding:1.0pt 4.0pt 1.0pt 4.0pt"> <p class="MsoNormal" style="margin-left:28.35pt;text-indent:-28.35pt;line-height: normal;page-break-after:avoid;border:none;padding:0in"><b><span lang="EL">3.        </span></b></p> </div><p class="MsoNormal" style="line-height:normal;page-break-after:avoid"></p><p class="MsoNormal" style="line-height:normal;text-autospace:none"><span lang="EL" style="color:black;background:#BFBFBF">:</span><span lang="EL"> ,  , ,   ,  20,   ,  .</span></p><p class="MsoNormal" style="line-height:normal;text-autospace:none"></p><p class="MsoNormal" style="line-height:normal;text-autospace:none"><span lang="EL">:   </span></p><p class="MsoNormal" style="line-height:normal;text-autospace:none"></p><p class="MsoNormal" style="line-height:normal;text-autospace:none"></p><div style="border:solid windowtext 1.0pt;padding:1.0pt 4.0pt 1.0pt 4.0pt"> <p class="MsoNormal" style="margin-left:28.35pt;text-indent:-28.35pt;line-height: normal;page-break-after:avoid;border:none;padding:0in"><b><span lang="EL">4.          </span></b></p> </div><p class="MsoNormal" style="line-height:normal;page-break-after:avoid"></p><p class="MsoNormal" style="line-height:normal;page-break-after:avoid"><span lang="EL" style="color:black;background:#BFBFBF">     </span></p><p class="MsoNormal" style="line-height:normal;page-break-after:avoid"></p><p class="MsoNormal" style="line-height:normal"><span lang="EL">: 1  , 3 ml    , 1  , 1  , 1  , 2   , 2 , 1 .</span></p><p class="MsoNormal" style="line-height:normal"></p><p class="MsoNormal" style="line-height:normal"></p><div style="border:solid windowtext 1.0pt;padding:1.0pt 4.0pt 1.0pt 4.0pt"> <p class="MsoNormal" style="margin-left:28.35pt;text-indent:-28.35pt;line-height: normal;page-break-after:avoid;border:none;padding:0in"><b><span lang="EL">5.         () </span></b></p> </div><p class="MsoNormal" style="line-height:normal"></p><p class="MsoNormal" style="line-height:normal"><span lang="EL"> ,   .</span></p><p class="MsoNormal" style="line-height:normal"><span lang="EL">        .</span></p><p class="MsoNormal" style="line-height:normal"></p><p class="MsoNormal" style="line-height:normal"><span lang="EL">         ELOCTA      QR   smartphone </span><span lang="EL">    </span><span lang="EL">.</span></p><p class="MsoNormal" style="line-height:normal"></p><p class="MsoNormal" style="line-height:normal"><span lang="EL" style="color:black; background:#BFBFBF"> QR   +</span><span lang="EN-GB"><a href="http://www.eloct-instructions.com/"><span lang="EL">http://www.elocta-instructions.com</span></a></span></p><p class="MsoNormal" style="line-height:normal"></p><p class="MsoNormal" style="line-height:normal"></p><div style="border:solid windowtext 1.0pt;padding:1.0pt 4.0pt 1.0pt 4.0pt"> <p class="MsoNormal" style="margin-left:28.35pt;text-indent:-28.35pt;line-height: normal;page-break-after:avoid;border:none;padding:0in"><b><span lang="EL">6.                             </span></b></p> </div><p class="MsoNormal" style="line-height:normal;page-break-after:avoid"></p><p class="MsoNormal" style="line-height:normal"><span lang="EL">   ,         .</span></p><p class="MsoNormal" style="line-height:normal"></p><p class="MsoNormal" style="line-height:normal"></p><div style="border:solid windowtext 1.0pt;padding:1.0pt 4.0pt 1.0pt 4.0pt"> <p class="MsoNormal" style="margin-left:28.35pt;text-indent:-28.35pt;line-height: normal;page-break-after:avoid;border:none;padding:0in"><b><span lang="EL">7.       () () (),   ()</span></b></p> </div><p class="MsoNormal" style="line-height:normal"></p><p class="MsoNormal" style="line-height:normal"></p><div style="border:solid windowtext 1.0pt;padding:1.0pt 4.0pt 1.0pt 4.0pt"> <p class="MsoNormal" style="margin-left:28.35pt;text-indent:-28.35pt;line-height: normal;page-break-after:avoid;border:none;padding:0in"><b><span lang="EL">8.        </span></b></p> </div><p class="MsoNormal" style="line-height:normal"></p><p class="MsoNormal" style="line-height:normal"><span lang="EL">EXP</span></p><p class="MsoNormal" style="line-height:normal"></p><p class="MsoNormal" style="line-height:normal"><span lang="EL">  6    .</span></p><p class="MsoNormal" style="line-height:normal"></p><p class="MsoNormal" style="line-height:normal"></p><div style="border:solid windowtext 1.0pt;padding:1.0pt 4.0pt 1.0pt 4.0pt"> <p class="MsoNormal" style="margin-left:28.35pt;text-indent:-28.35pt;line-height: normal;page-break-after:avoid;border:none;padding:0in"><b><span lang="EL">9.         </span></b></p> </div><p class="MsoNormal" style="line-height:normal;page-break-after:avoid"></p><p class="MsoNormal" style="line-height:normal"><span lang="EL">  .</span></p><p class="MsoNormal" style="line-height:normal"><span lang="EL"> .</span></p><p class="MsoNormal" style="line-height:normal"><span lang="EL">           .</span></p><p class="MsoNormal" style="line-height:normal"><span lang="EL">      ( 30C)      6 .            .      :</span></p><p class="MsoNormal" style="line-height:normal"></p><p class="MsoNormal" style="margin-left:28.35pt;text-indent:-28.35pt;line-height: normal"></p><div style="border:solid windowtext 1.0pt;padding:1.0pt 4.0pt 1.0pt 4.0pt"> <p class="MsoNormal" style="margin-left:28.35pt;text-indent:-28.35pt;line-height: normal;page-break-after:avoid;border:none;padding:0in"><b><span lang="EL">10.                     ,  </span></b></p> </div><p class="MsoNormal" style="line-height:normal;page-break-after:avoid"></p><p class="MsoNormal" style="line-height:normal"></p><div style="border:solid windowtext 1.0pt;padding:1.0pt 4.0pt 1.0pt 4.0pt"> <p class="MsoNormal" style="margin-left:28.35pt;text-indent:-28.35pt;line-height: normal;page-break-after:avoid;border:none;padding:0in"><b><span lang="EL">11.           </span></b></p> </div><p class="MsoNormal" style="line-height:normal;page-break-after:avoid"></p><p class="MsoNormal" style="line-height:normal"><span lang="EL">Swedish Orphan Biovitrum AB (publ)</span></p><p class="MsoNormal" style="line-height:normal"><span lang="EL">SE-112 76 Stockholm</span></p><p class="MsoNormal" style="line-height:normal"><span lang="EL"></span></p><p class="MsoNormal" style="line-height:normal"></p><p class="MsoNormal" style="line-height:normal"></p><div style="border:solid windowtext 1.0pt;padding:1.0pt 4.0pt 1.0pt 4.0pt"> <p class="MsoNormal" style="margin-left:28.35pt;text-indent:-28.35pt;line-height: normal;page-break-after:avoid;border:none;padding:0in"><b><span lang="EL">12.     ()  </span></b></p> </div><p class="MsoNormal" style="line-height:normal"></p><p class="MsoNormal" style="line-height:normal"><span lang="EL">EU/1/15/1046/007</span></p><p class="MsoNormal" style="line-height:normal"></p><p class="MsoNormal" style="line-height:normal"></p><div style="border:solid windowtext 1.0pt;padding:1.0pt 4.0pt 1.0pt 4.0pt"> <p class="MsoNormal" style="margin-left:28.35pt;text-indent:-28.35pt;line-height: normal;page-break-after:avoid;border:none;padding:0in"><b><span lang="EL">13.      </span></b></p> </div><p class="MsoNormal" style="line-height:normal"></p><p class="MsoNormal" style="line-height:normal"><span lang="EL">Lot</span></p><p class="MsoNormal" style="line-height:normal"></p><p class="MsoNormal" style="line-height:normal"></p><div style="border:solid windowtext 1.0pt;padding:1.0pt 4.0pt 1.0pt 4.0pt"> <p class="MsoNormal" style="margin-left:28.35pt;text-indent:-28.35pt;line-height: normal;page-break-after:avoid;border:none;padding:0in"><b><span lang="EL">14.         </span></b></p> </div><p class="MsoNormal" style="line-height:normal"></p><p class="MsoNormal" style="line-height:normal"></p><div style="border:solid windowtext 1.0pt;padding:1.0pt 4.0pt 1.0pt 4.0pt"> <p class="MsoNormal" style="margin-left:28.35pt;text-indent:-28.35pt;line-height: normal;page-break-after:avoid;border:none;padding:0in"><b><span lang="EL">15.      </span></b></p> </div><p class="MsoNormal" style="line-height:normal"></p><p class="MsoNormal" style="line-height:normal"></p><p class="MsoNormal" style="line-height:normal"></p><div style="border:solid windowtext 1.0pt;padding:1.0pt 4.0pt 1.0pt 4.0pt"> <p class="MsoNormal" style="margin-left:28.35pt;text-indent:-28.35pt;line-height: normal;page-break-after:avoid;border:none;padding:0in"><b><span lang="EL">16.       BRAILLE</span></b></p> </div><p class="MsoNormal" style="line-height:normal;page-break-after:avoid"></p><p class="MsoNormal" style="line-height:normal"><span lang="EL">ELOCTA 3000</span></p><p class="MsoNormal" style="line-height:normal"></p><p class="MsoNormal" style="line-height:normal"></p><div style="border:solid windowtext 1.0pt;padding:1.0pt 4.0pt 1.0pt 4.0pt"> <p class="MsoNormal" style="margin-left:28.35pt;text-indent:-28.35pt;line-height: normal;page-break-after:avoid;border:none;padding:0in"><b><span lang="EL">17.            (2D)</span></b></p> </div><p class="MsoNormal" style="line-height:normal;page-break-after:avoid"></p><p class="MsoNormal" style="line-height:normal"><span lang="EL" style="color:black; background:#D9D9D9">   (2D)       .</span></p><p class="MsoNormal" style="line-height:normal"></p><p class="MsoNormal" style="line-height:normal"></p><div style="border:solid windowtext 1.0pt;padding:1.0pt 4.0pt 1.0pt 4.0pt"> <p class="MsoNormal" style="margin-left:28.35pt;text-indent:-28.35pt;line-height: normal;page-break-after:avoid;border:none;padding:0in"><b><span lang="EL">18.             </span></b></p> </div><p class="MsoNormal" style="line-height:normal;page-break-after:avoid"></p><p class="MsoNormal" style="line-height:normal;page-break-after:avoid"><span lang="EL">PC</span></p><p class="MsoNormal" style="line-height:normal;page-break-after:avoid"><span lang="EL">SN</span></p><p class="MsoNormal" style="line-height:normal"><span lang="EL">NN</span></p><p class="MsoNormal" style="line-height:normal"></p><span lang="EL" style='font-size:11.0pt;font-family:"Times New Roman",serif; color:black;background:#CCCCCC'><br clear="all" style="page-break-before:always"/> </span><br clear="all" style="page-break-before:always"/><p class="MsoNormal" style="line-height:normal"></p><div style="border:solid windowtext 1.0pt;padding:1.0pt 4.0pt 1.0pt 4.0pt"> <p class="MsoNormal" style="line-height:normal;border:none;padding:0in"><b><span lang="EL">         </span></b></p> <p class="MsoNormal" style="line-height:normal;border:none;padding:0in"></p> <p class="MsoNormal" style="line-height:normal;border:none;padding:0in"><b><span lang="EL"> </span></b></p> </div><p class="MsoNormal" style="line-height:normal"></p><p class="MsoNormal" style="line-height:normal"></p><div style="border:solid windowtext 1.0pt;padding:1.0pt 4.0pt 1.0pt 4.0pt"> <p class="MsoNormal" style="margin-left:28.35pt;text-indent:-28.35pt;line-height: normal;page-break-after:avoid;border:none;padding:0in"><b><span lang="EL">1.            () </span></b></p> </div><p class="MsoNormal" style="margin-left:28.35pt;text-indent:-28.35pt;line-height: normal"></p><p class="MsoNormal" style="line-height:normal"><span lang="EL">ELOCTA 3000 IU   </span></p><p class="MsoNormal" style="line-height:normal"></p><p class="MsoNormal" style="line-height:normal"><span lang="EL">efmoroctocog alfa</span></p><p class="MsoNormal" style="line-height:normal"><span lang="EL">   VIII</span></p><p class="MsoNormal" style="line-height:normal"><span lang="EL">IV</span></p><p class="MsoNormal" style="line-height:normal"></p><p class="MsoNormal" style="line-height:normal"></p><div style="border:solid windowtext 1.0pt;padding:1.0pt 4.0pt 1.0pt 4.0pt"> <p class="MsoNormal" style="margin-left:28.35pt;text-indent:-28.35pt;line-height: normal;page-break-after:avoid;border:none;padding:0in"><b><span lang="EL">2.        </span></b></p> </div><p class="MsoNormal" style="line-height:normal"></p><p class="MsoNormal" style="line-height:normal"></p><div style="border:solid windowtext 1.0pt;padding:1.0pt 4.0pt 1.0pt 4.0pt"> <p class="MsoNormal" style="margin-left:28.35pt;text-indent:-28.35pt;line-height: normal;page-break-after:avoid;border:none;padding:0in"><b><span lang="EL">3.        </span></b></p> </div><p class="MsoNormal" style="line-height:normal"></p><p class="MsoNormal" style="line-height:normal"><span lang="EL">EXP</span></p><p class="MsoNormal" style="line-height:normal"></p><p class="MsoNormal" style="line-height:normal"></p><div style="border:solid windowtext 1.0pt;padding:1.0pt 4.0pt 1.0pt 4.0pt"> <p class="MsoNormal" style="margin-left:28.35pt;text-indent:-28.35pt;line-height: normal;page-break-after:avoid;border:none;padding:0in"><b><span lang="EL">4.        </span></b></p> </div><p class="MsoNormal" style="margin-right:5.65pt;line-height:normal"></p><p class="MsoNormal" style="margin-right:5.65pt;line-height:normal"><span lang="EL">Lot</span></p><p class="MsoNormal" style="margin-right:5.65pt;line-height:normal"></p><p class="MsoNormal" style="margin-right:5.65pt;line-height:normal"></p><div style="border:solid windowtext 1.0pt;padding:1.0pt 4.0pt 1.0pt 4.0pt"> <p class="MsoNormal" style="margin-left:28.35pt;text-indent:-28.35pt;line-height: normal;page-break-after:avoid;border:none;padding:0in"><b><span lang="EL">5.         ,     </span></b></p> </div><p class="MsoNormal" style="margin-right:5.65pt;line-height:normal;page-break-after: avoid"></p><p class="MsoNormal" style="line-height:normal"><span lang="EL">3000 IU</span></p><p class="MsoNormal" style="margin-right:5.65pt;line-height:normal"></p><p class="MsoNormal" style="margin-right:5.65pt;line-height:normal"></p><div style="border:solid windowtext 1.0pt;padding:1.0pt 4.0pt 1.0pt 4.0pt"> <p class="MsoNormal" style="margin-left:28.35pt;text-indent:-28.35pt;line-height: normal;page-break-after:avoid;border:none;padding:0in"><b><span lang="EL">6.        </span></b></p> </div><p class="MsoNormal" style="margin-right:5.65pt;line-height:normal"></p><span lang="EL" style='font-size:11.0pt;font-family:"Times New Roman",serif'><br clear="all" style="page-break-before:always"/> </span><br clear="all" style="page-break-before:always"/><div style="border:solid windowtext 1.0pt;padding:1.0pt 4.0pt 1.0pt 4.0pt"> <p class="MsoNormal" style="line-height:normal;border:none;padding:0in"><b><span lang="EL">       </span></b></p> <p class="MsoNormal" style="margin-left:28.35pt;text-indent:-28.35pt;line-height: normal;border:none;padding:0in"></p> <p class="MsoNormal" style="line-height:normal;border:none;padding:0in"><b><span lang="EL"> </span></b></p> </div><p class="MsoNormal" style="line-height:normal"></p><p class="MsoNormal" style="line-height:normal"></p><div style="border:solid windowtext 1.0pt;padding:1.0pt 4.0pt 1.0pt 4.0pt"> <p class="MsoNormal" style="margin-left:28.35pt;text-indent:-28.35pt;line-height: normal;page-break-after:avoid;border:none;padding:0in"><b><span lang="EL">1.          </span></b></p> </div><p class="MsoNormal" style="line-height:normal"></p><p class="MsoNormal" style="line-height:normal"><span lang="EL">ELOCTA 4000 IU      </span></p><p class="MsoNormal" style="line-height:normal"></p><p class="MsoNormal" style="line-height:normal"><span lang="EL">efmoroctocog alfa </span></p><p class="MsoNormal" style="line-height:normal"><span lang="EL">(   VIII,   Fc)</span></p><p class="MsoNormal" style="line-height:normal"></p><p class="MsoNormal" style="line-height:normal"></p><div style="border:solid windowtext 1.0pt;padding:1.0pt 4.0pt 1.0pt 4.0pt"> <p class="MsoNormal" style="margin-left:28.35pt;text-indent:-28.35pt;line-height: normal;page-break-after:avoid;border:none;padding:0in"><b><span lang="EL">2.         () ()</span></b></p> </div><p class="MsoNormal" style="line-height:normal"></p><p class="MsoNormal" style="line-height:normal"><span lang="EL">1    </span><span lang="EL">4000 IU efmoroctocog alfa (. 1.333 IU/ml   )</span></p><p class="MsoNormal" style="line-height:normal"></p><p class="MsoNormal" style="line-height:normal"></p><div style="border:solid windowtext 1.0pt;padding:1.0pt 4.0pt 1.0pt 4.0pt"> <p class="MsoNormal" style="margin-left:28.35pt;text-indent:-28.35pt;line-height: normal;page-break-after:avoid;border:none;padding:0in"><b><span lang="EL">3.        </span></b></p> </div><p class="MsoNormal" style="line-height:normal;page-break-after:avoid"></p><p class="MsoNormal" style="line-height:normal;text-autospace:none"><span lang="EL" style="color:black;background:#BFBFBF">:</span><span lang="EL"> ,  , ,   ,  20,   ,  .</span></p><p class="MsoNormal" style="line-height:normal;text-autospace:none"></p><p class="MsoNormal" style="line-height:normal;text-autospace:none"><span lang="EL">:   </span></p><p class="MsoNormal" style="line-height:normal;text-autospace:none"></p><p class="MsoNormal" style="line-height:normal;text-autospace:none"></p><div style="border:solid windowtext 1.0pt;padding:1.0pt 4.0pt 1.0pt 4.0pt"> <p class="MsoNormal" style="margin-left:28.35pt;text-indent:-28.35pt;line-height: normal;page-break-after:avoid;border:none;padding:0in"><b><span lang="EL">4.          </span></b></p> </div><p class="MsoNormal" style="line-height:normal;page-break-after:avoid"></p><p class="MsoNormal" style="line-height:normal;page-break-after:avoid"><span lang="EL" style="color:black;background:#BFBFBF">     </span></p><p class="MsoNormal" style="line-height:normal;page-break-after:avoid"></p><p class="MsoNormal" style="line-height:normal"><span lang="EL">: 1  , 3 ml    , 1  , 1  , 1  , 2   , 2 , 1 .</span></p><p class="MsoNormal" style="line-height:normal"></p><p class="MsoNormal" style="line-height:normal"></p><div style="border:solid windowtext 1.0pt;padding:1.0pt 4.0pt 1.0pt 4.0pt"> <p class="MsoNormal" style="margin-left:28.35pt;text-indent:-28.35pt;line-height: normal;page-break-after:avoid;border:none;padding:0in"><b><span lang="EL">5.         () </span></b></p> </div><p class="MsoNormal" style="line-height:normal"></p><p class="MsoNormal" style="line-height:normal"><span lang="EL"> ,   .</span></p><p class="MsoNormal" style="line-height:normal"><span lang="EL">        .</span></p><p class="MsoNormal" style="line-height:normal"></p><p class="MsoNormal" style="line-height:normal"><span lang="EL">         ELOCTA      QR   smartphone </span><span lang="EL">    </span><span lang="EL">.</span></p><p class="MsoNormal" style="line-height:normal"></p><p class="MsoNormal" style="line-height:normal"><span lang="EL" style="color:black; background:#BFBFBF"> QR   +</span><span lang="EN-GB"><a href="http://www.eloct-instructions.com/"><span lang="EL">http://www.elocta-instructions.com</span></a></span></p><p class="MsoNormal" style="line-height:normal"></p><p class="MsoNormal" style="line-height:normal"></p><div style="border:solid windowtext 1.0pt;padding:1.0pt 4.0pt 1.0pt 4.0pt"> <p class="MsoNormal" style="margin-left:28.35pt;text-indent:-28.35pt;line-height: normal;page-break-after:avoid;border:none;padding:0in"><b><span lang="EL">6.                             </span></b></p> </div><p class="MsoNormal" style="line-height:normal;page-break-after:avoid"></p><p class="MsoNormal" style="line-height:normal"><span lang="EL">   ,         .</span></p><p class="MsoNormal" style="line-height:normal"></p><p class="MsoNormal" style="line-height:normal"></p><div style="border:solid windowtext 1.0pt;padding:1.0pt 4.0pt 1.0pt 4.0pt"> <p class="MsoNormal" style="margin-left:28.35pt;text-indent:-28.35pt;line-height: normal;page-break-after:avoid;border:none;padding:0in"><b><span lang="EL">7.       () () (),   ()</span></b></p> </div><p class="MsoNormal" style="line-height:normal"></p><p class="MsoNormal" style="line-height:normal"></p><div style="border:solid windowtext 1.0pt;padding:1.0pt 4.0pt 1.0pt 4.0pt"> <p class="MsoNormal" style="margin-left:28.35pt;text-indent:-28.35pt;line-height: normal;page-break-after:avoid;border:none;padding:0in"><b><span lang="EL">8.        </span></b></p> </div><p class="MsoNormal" style="line-height:normal"></p><p class="MsoNormal" style="line-height:normal"><span lang="EL">EXP</span></p><p class="MsoNormal" style="line-height:normal"></p><p class="MsoNormal" style="line-height:normal"><span lang="EL">  6    .</span></p><p class="MsoNormal" style="line-height:normal"></p><p class="MsoNormal" style="line-height:normal"></p><div style="border:solid windowtext 1.0pt;padding:1.0pt 4.0pt 1.0pt 4.0pt"> <p class="MsoNormal" style="margin-left:28.35pt;text-indent:-28.35pt;line-height: normal;page-break-after:avoid;border:none;padding:0in"><b><span lang="EL">9.         </span></b></p> </div><p class="MsoNormal" style="line-height:normal;page-break-after:avoid"></p><p class="MsoNormal" style="line-height:normal"><span lang="EL">  .</span></p><p class="MsoNormal" style="line-height:normal"><span lang="EL"> .</span></p><p class="MsoNormal" style="line-height:normal"><span lang="EL">           .</span></p><p class="MsoNormal" style="line-height:normal"><span lang="EL">      ( 30C)      6 .            .      :</span></p><p class="MsoNormal" style="line-height:normal"></p><p class="MsoNormal" style="margin-left:28.35pt;text-indent:-28.35pt;line-height: normal"></p><div style="border:solid windowtext 1.0pt;padding:1.0pt 4.0pt 1.0pt 4.0pt"> <p class="MsoNormal" style="margin-left:28.35pt;text-indent:-28.35pt;line-height: normal;page-break-after:avoid;border:none;padding:0in"><b><span lang="EL">10.                     ,  </span></b></p> </div><p class="MsoNormal" style="line-height:normal;page-break-after:avoid"></p><p class="MsoNormal" style="line-height:normal"></p><div style="border:solid windowtext 1.0pt;padding:1.0pt 4.0pt 1.0pt 4.0pt"> <p class="MsoNormal" style="margin-left:28.35pt;text-indent:-28.35pt;line-height: normal;page-break-after:avoid;border:none;padding:0in"><b><span lang="EL">11.           </span></b></p> </div><p class="MsoNormal" style="line-height:normal;page-break-after:avoid"></p><p class="MsoNormal" style="line-height:normal"><span lang="EL">Swedish Orphan Biovitrum AB (publ)</span></p><p class="MsoNormal" style="line-height:normal"><span lang="EL">SE-112 76 Stockholm</span></p><p class="MsoNormal" style="line-height:normal"><span lang="EL"></span></p><p class="MsoNormal" style="line-height:normal"></p><p class="MsoNormal" style="line-height:normal"></p><div style="border:solid windowtext 1.0pt;padding:1.0pt 4.0pt 1.0pt 4.0pt"> <p class="MsoNormal" style="margin-left:28.35pt;text-indent:-28.35pt;line-height: normal;page-break-after:avoid;border:none;padding:0in"><b><span lang="EL">12.     ()  </span></b></p> </div><p class="MsoNormal" style="line-height:normal"></p><p class="MsoNormal" style="line-height:normal"><span lang="EL">EU/1/15/1046/008</span></p><p class="MsoNormal" style="line-height:normal"></p><p class="MsoNormal" style="line-height:normal"></p><div style="border:solid windowtext 1.0pt;padding:1.0pt 4.0pt 1.0pt 4.0pt"> <p class="MsoNormal" style="margin-left:28.35pt;text-indent:-28.35pt;line-height: normal;page-break-after:avoid;border:none;padding:0in"><b><span lang="EL">13.      </span></b></p> </div><p class="MsoNormal" style="line-height:normal"></p><p class="MsoNormal" style="line-height:normal"><span lang="EL">Lot</span></p><p class="MsoNormal" style="line-height:normal"></p><p class="MsoNormal" style="line-height:normal"></p><div style="border:solid windowtext 1.0pt;padding:1.0pt 4.0pt 1.0pt 4.0pt"> <p class="MsoNormal" style="margin-left:28.35pt;text-indent:-28.35pt;line-height: normal;page-break-after:avoid;border:none;padding:0in"><b><span lang="EL">14.         </span></b></p> </div><p class="MsoNormal" style="line-height:normal"></p><p class="MsoNormal" style="line-height:normal"></p><div style="border:solid windowtext 1.0pt;padding:1.0pt 4.0pt 1.0pt 4.0pt"> <p class="MsoNormal" style="margin-left:28.35pt;text-indent:-28.35pt;line-height: normal;page-break-after:avoid;border:none;padding:0in"><b><span lang="EL">15.      </span></b></p> </div><p class="MsoNormal" style="line-height:normal"></p><p class="MsoNormal" style="line-height:normal"></p><p class="MsoNormal" style="line-height:normal"></p><div style="border:solid windowtext 1.0pt;padding:1.0pt 4.0pt 1.0pt 4.0pt"> <p class="MsoNormal" style="margin-left:28.35pt;text-indent:-28.35pt;line-height: normal;page-break-after:avoid;border:none;padding:0in"><b><span lang="EL">16.       BRAILLE</span></b></p> </div><p class="MsoNormal" style="line-height:normal;page-break-after:avoid"></p><p class="MsoNormal" style="line-height:normal"><span lang="EL">ELOCTA 4000</span></p><p class="MsoNormal" style="line-height:normal"></p><p class="MsoNormal" style="line-height:normal"></p><div style="border:solid windowtext 1.0pt;padding:1.0pt 4.0pt 1.0pt 4.0pt"> <p class="MsoNormal" style="margin-left:28.35pt;text-indent:-28.35pt;line-height: normal;page-break-after:avoid;border:none;padding:0in"><b><span lang="EL">17.            (2D)</span></b></p> </div><p class="MsoNormal" style="line-height:normal;page-break-after:avoid"></p><p class="MsoNormal" style="line-height:normal"><span lang="EL" style="color:black; background:#D9D9D9">   (2D)       .</span></p><p class="MsoNormal" style="line-height:normal"></p><p class="MsoNormal" style="line-height:normal"></p><div style="border:solid windowtext 1.0pt;padding:1.0pt 4.0pt 1.0pt 4.0pt"> <p class="MsoNormal" style="margin-left:28.35pt;text-indent:-28.35pt;line-height: normal;page-break-after:avoid;border:none;padding:0in"><b><span lang="EL">18.             </span></b></p> </div><p class="MsoNormal" style="line-height:normal;page-break-after:avoid"></p><p class="MsoNormal" style="line-height:normal;page-break-after:avoid"><span lang="EL">PC</span></p><p class="MsoNormal" style="line-height:normal;page-break-after:avoid"><span lang="EL">SN</span></p><p class="MsoNormal" style="line-height:normal"><span lang="EL">NN</span></p><p class="MsoNormal" style="line-height:normal"></p><span lang="EL" style='font-size:11.0pt;font-family:"Times New Roman",serif; color:black;background:#CCCCCC'><br clear="all" style="page-break-before:always"/> </span><br clear="all" style="page-break-before:always"/><p class="MsoNormal" style="line-height:normal"></p><div style="border:solid windowtext 1.0pt;padding:1.0pt 4.0pt 1.0pt 4.0pt"> <p class="MsoNormal" style="line-height:normal;border:none;padding:0in"><b><span lang="EL">         </span></b></p> <p class="MsoNormal" style="line-height:normal;border:none;padding:0in"></p> <p class="MsoNormal" style="line-height:normal;border:none;padding:0in"><b><span lang="EL"> </span></b></p> </div><p class="MsoNormal" style="line-height:normal"></p><p class="MsoNormal" style="line-height:normal"></p><div style="border:solid windowtext 1.0pt;padding:1.0pt 4.0pt 1.0pt 4.0pt"> <p class="MsoNormal" style="margin-left:28.35pt;text-indent:-28.35pt;line-height: normal;page-break-after:avoid;border:none;padding:0in"><b><span lang="EL">1.            () </span></b></p> </div><p class="MsoNormal" style="margin-left:28.35pt;text-indent:-28.35pt;line-height: normal"></p><p class="MsoNormal" style="line-height:normal"><span lang="EL">ELOCTA 4000 IU   </span></p><p class="MsoNormal" style="line-height:normal"></p><p class="MsoNormal" style="line-height:normal"><span lang="EL">efmoroctocog alfa</span></p><p class="MsoNormal" style="line-height:normal"><span lang="EL">   VIII</span></p><p class="MsoNormal" style="line-height:normal"><span lang="EL">IV</span></p><p class="MsoNormal" style="line-height:normal"></p><p class="MsoNormal" style="line-height:normal"></p><div style="border:solid windowtext 1.0pt;padding:1.0pt 4.0pt 1.0pt 4.0pt"> <p class="MsoNormal" style="margin-left:28.35pt;text-indent:-28.35pt;line-height: normal;page-break-after:avoid;border:none;padding:0in"><b><span lang="EL">2.        </span></b></p> </div><p class="MsoNormal" style="line-height:normal"></p><p class="MsoNormal" style="line-height:normal"></p><div style="border:solid windowtext 1.0pt;padding:1.0pt 4.0pt 1.0pt 4.0pt"> <p class="MsoNormal" style="margin-left:28.35pt;text-indent:-28.35pt;line-height: normal;page-break-after:avoid;border:none;padding:0in"><b><span lang="EL">3.        </span></b></p> </div><p class="MsoNormal" style="line-height:normal"></p><p class="MsoNormal" style="line-height:normal"><span lang="EL">EXP</span></p><p class="MsoNormal" style="line-height:normal"></p><p class="MsoNormal" style="line-height:normal"></p><div style="border:solid windowtext 1.0pt;padding:1.0pt 4.0pt 1.0pt 4.0pt"> <p class="MsoNormal" style="margin-left:28.35pt;text-indent:-28.35pt;line-height: normal;page-break-after:avoid;border:none;padding:0in"><b><span lang="EL">4.        </span></b></p> </div><p class="MsoNormal" style="margin-right:5.65pt;line-height:normal"></p><p class="MsoNormal" style="margin-right:5.65pt;line-height:normal"><span lang="EL">Lot</span></p><p class="MsoNormal" style="margin-right:5.65pt;line-height:normal"></p><p class="MsoNormal" style="margin-right:5.65pt;line-height:normal"></p><div style="border:solid windowtext 1.0pt;padding:1.0pt 4.0pt 1.0pt 4.0pt"> <p class="MsoNormal" style="margin-left:28.35pt;text-indent:-28.35pt;line-height: normal;page-break-after:avoid;border:none;padding:0in"><b><span lang="EL">5.         ,     </span></b></p> </div><p class="MsoNormal" style="margin-right:5.65pt;line-height:normal;page-break-after: avoid"></p><p class="MsoNormal" style="line-height:normal"><span lang="EL">4000 IU</span></p><p class="MsoNormal" style="margin-right:5.65pt;line-height:normal"></p><p class="MsoNormal" style="margin-right:5.65pt;line-height:normal"></p><div style="border:solid windowtext 1.0pt;padding:1.0pt 4.0pt 1.0pt 4.0pt"> <p class="MsoNormal" style="margin-left:28.35pt;text-indent:-28.35pt;line-height: normal;page-break-after:avoid;border:none;padding:0in"><b><span lang="EL">6.        </span></b></p> </div><p class="MsoNormal" style="margin-right:5.65pt;line-height:normal"></p><span lang="EL" style='font-size:11.0pt;font-family:"Times New Roman",serif'><br clear="all" style="page-break-before:always"/> </span><br clear="all" style="page-break-before:always"/><div style="border:solid windowtext 1.0pt;padding:1.0pt 4.0pt 1.0pt 4.0pt"> <p class="MsoNormal" style="line-height:normal;border:none;padding:0in"><b><span lang="EL">         </span></b></p> <p class="MsoNormal" style="line-height:normal;border:none;padding:0in"></p> <p class="MsoNormal" style="line-height:normal;border:none;padding:0in"><b><span lang="EL">  </span></b></p> </div><p class="MsoNormal" style="line-height:normal"></p><p class="MsoNormal" style="line-height:normal"></p><div style="border:solid windowtext 1.0pt;padding:1.0pt 4.0pt 1.0pt 4.0pt"> <p class="MsoNormal" style="margin-left:28.35pt;text-indent:-28.35pt;line-height: normal;page-break-after:avoid;border:none;padding:0in"><b><span lang="EL">1.            () </span></b></p> </div><p class="MsoNormal" style="margin-left:28.35pt;text-indent:-28.35pt;line-height: normal"></p><p class="MsoNormal" style="line-height:normal"><span lang="EL">   ELOCTA</span></p><p class="MsoNormal" style="line-height:normal"><span lang="EL">  </span></p><p class="MsoNormal" style="line-height:normal"></p><p class="MsoNormal" style="line-height:normal"></p><div style="border:solid windowtext 1.0pt;padding:1.0pt 4.0pt 1.0pt 4.0pt"> <p class="MsoNormal" style="margin-left:28.35pt;text-indent:-28.35pt;line-height: normal;page-break-after:avoid;border:none;padding:0in"><b><span lang="EL">2.        </span></b></p> </div><p class="MsoNormal" style="line-height:normal"></p><p class="MsoNormal" style="line-height:normal"></p><div style="border:solid windowtext 1.0pt;padding:1.0pt 4.0pt 1.0pt 4.0pt"> <p class="MsoNormal" style="margin-left:28.35pt;text-indent:-28.35pt;line-height: normal;page-break-after:avoid;border:none;padding:0in"><b><span lang="EL">3.        </span></b></p> </div><p class="MsoNormal" style="line-height:normal"></p><p class="MsoNormal" style="line-height:normal"><span lang="EL">EXP</span></p><p class="MsoNormal" style="line-height:normal"></p><p class="MsoNormal" style="line-height:normal"></p><div style="border:solid windowtext 1.0pt;padding:1.0pt 4.0pt 1.0pt 4.0pt"> <p class="MsoNormal" style="margin-left:28.35pt;text-indent:-28.35pt;line-height: normal;page-break-after:avoid;border:none;padding:0in"><b><span lang="EL">4.        </span></b></p> </div><p class="MsoNormal" style="margin-right:5.65pt;line-height:normal"></p><p class="MsoNormal" style="margin-right:5.65pt;line-height:normal"><span lang="EL">Lot</span></p><p class="MsoNormal" style="margin-right:5.65pt;line-height:normal"></p><p class="MsoNormal" style="margin-right:5.65pt;line-height:normal"></p><div style="border:solid windowtext 1.0pt;padding:1.0pt 4.0pt 1.0pt 4.0pt"> <p class="MsoNormal" style="margin-left:28.35pt;text-indent:-28.35pt;line-height: normal;page-break-after:avoid;border:none;padding:0in"><b><span lang="EL">5.         ,     </span></b></p> </div><p class="MsoNormal" style="margin-right:5.65pt;line-height:normal"></p><p class="MsoNormal" style="margin-right:5.65pt;line-height:normal"><span lang="EL">3 ml</span></p><p class="MsoNormal" style="margin-right:5.65pt;line-height:normal"></p><p class="MsoNormal" style="margin-right:5.65pt;line-height:normal"></p><div style="border:solid windowtext 1.0pt;padding:1.0pt 4.0pt 1.0pt 4.0pt"> <p class="MsoNormal" style="margin-left:28.35pt;text-indent:-28.35pt;line-height: normal;page-break-after:avoid;border:none;padding:0in"><b><span lang="EL">6.        </span></b></p> </div><p class="MsoNormal" style="margin-right:5.65pt;line-height:normal"></p><p class="MsoNormal" style="margin-right:5.65pt;line-height:normal"></p><span lang="EL" style='font-size:11.0pt;font-family:"Times New Roman",serif'><br clear="all" style="page-break-before:always"/> </span><br clear="all" style="page-break-before:always"/><p class="MsoNormal" style="line-height:normal"></p><p class="MsoNormal" style="margin-right:5.65pt;line-height:normal"></p><p class="MsoNormal" style="margin-right:5.65pt;line-height:normal"></p><p class="MsoNormal" style="margin-right:5.65pt;line-height:normal"></p><p class="MsoNormal" style="margin-right:5.65pt;line-height:normal"></p><p class="MsoNormal" style="margin-right:5.65pt;line-height:normal"></p><p class="MsoNormal" style="margin-right:5.65pt;line-height:normal"></p><p class="MsoNormal" style="margin-right:5.65pt;line-height:normal"></p><p class="MsoNormal" style="margin-right:5.65pt;line-height:normal"></p><p class="MsoNormal" style="margin-right:5.65pt;line-height:normal"></p><p class="MsoNormal" style="margin-right:5.65pt;line-height:normal"></p><p class="MsoNormal" style="margin-right:5.65pt;line-height:normal"></p><p class="MsoNormal" style="margin-right:5.65pt;line-height:normal"></p><p class="MsoNormal" style="margin-right:5.65pt;line-height:normal"></p><p class="MsoNormal" style="margin-right:5.65pt;line-height:normal"></p><p class="MsoNormal" style="margin-right:5.65pt;line-height:normal"></p><p class="MsoNormal" style="margin-right:5.65pt;line-height:normal"></p><p class="MsoNormal" style="margin-right:5.65pt;line-height:normal"></p><p class="MsoNormal" style="margin-right:5.65pt;line-height:normal"></p><p class="MsoNormal" style="margin-right:5.65pt;line-height:normal"></p><p class="MsoNormal" style="margin-right:5.65pt;line-height:normal"></p><p class="MsoNormal" style="margin-right:5.65pt;line-height:normal"></p><p class="MsoNormal" style="margin-right:5.65pt;line-height:normal"></p><p class="MsoNormal" style="margin-right:5.65pt;line-height:normal"></p><p class="TitleA"><span lang="EL">B.   </span></p><p align="center" class="MsoNormal" style="text-align:center;line-height:normal"></p><b><span lang="EL" style='font-size:11.0pt;font-family:"Times New Roman",serif'><br clear="all" style="page-break-before:always"/> </span></b><span lang="EL" style='font-size:11.0pt;font-family:"Times New Roman",serif'><br clear="all" style="page-break-before:always"/> </span><br clear="all" style="page-break-before:always"/><p align="center" class="MsoNormal" style="text-align:center;line-height:normal"><b><span lang="EL">  :    </span></b></p><p align="center" class="MsoNormal" style="text-align:center;line-height:normal"></p><p align="center" class="MsoNormal" style="text-align:center;line-height:normal"><b><span lang="EL">ELOCTA 250 IU      </span></b></p><p align="center" class="MsoNormal" style="text-align:center;line-height:normal"><b><span lang="EL">ELOCTA 500 IU      </span></b></p><p align="center" class="MsoNormal" style="text-align:center;line-height:normal"><b><span lang="EL">ELOCTA 750 IU      </span></b></p><p align="center" class="MsoNormal" style="text-align:center;line-height:normal"><b><span lang="EL">ELOCTA 1000 IU      </span></b></p><p align="center" class="MsoNormal" style="text-align:center;line-height:normal"><b><span lang="EL">ELOCTA 1500 IU      </span></b></p><p align="center" class="MsoNormal" style="text-align:center;line-height:normal"><b><span lang="EL">ELOCTA 2000 IU      </span></b></p><p align="center" class="MsoNormal" style="text-align:center;line-height:normal"><b><span lang="EL">ELOCTA 3000 IU      </span></b></p><p align="center" class="MsoNormal" style="text-align:center;line-height:normal"><b><span lang="EL">ELOCTA 4000 IU      </span></b></p><p align="center" class="MsoNormal" style="text-align:center;line-height:normal"></p><p align="center" class="MsoNormal" style="text-align:center;line-height:normal"><span lang="EL">  (efmoroctocog alfa) (   VIII)</span></p><p align="center" class="MsoNormal" style="text-align:center;line-height:normal"></p><p class="MsoNormal" style="line-height:normal"><b><span lang="EL">             ,      .</span></b></p><p class="MsoListParagraphCxSpFirst" style="margin-left:28.35pt;text-indent:-28.35pt"><span lang="EL" style="font-size:11.0pt">-</span><span lang="EL" style="font-size:11.0pt">     .      .</span></p><p class="MsoListParagraphCxSpMiddle" style="margin-left:28.35pt;text-indent: -28.35pt"><span lang="EL" style="font-size:11.0pt">-</span><span lang="EL" style="font-size:11.0pt">   ,   ,      .</span></p><p class="MsoListParagraphCxSpMiddle" style="margin-left:28.35pt;text-indent: -28.35pt"><span lang="EL" style="font-size:11.0pt">-</span><span lang="EL" style="font-size:11.0pt">         .        .     ,              .</span></p><p class="MsoListParagraphCxSpLast" style="margin-left:28.35pt;text-indent:-28.35pt"><span lang="EL" style="font-size:11.0pt">-</span><span lang="EL" style="font-size:11.0pt">    ,   ,      .                .   4.</span></p><p class="MsoNormal" style="line-height:normal"></p><p class="MsoNormal" style="line-height:normal"><b><span lang="EL">     </span></b></p><p class="MsoListParagraphCxSpFirst" style="margin-left:28.35pt;text-indent:-28.35pt"><span lang="EL" style="font-size:11.0pt">1.</span><span lang="EL" style="font-size:11.0pt">   ELOCTA      </span></p><p class="MsoListParagraphCxSpMiddle" style="margin-left:28.35pt;text-indent: -28.35pt"><span lang="EL" style="font-size:11.0pt">2.</span><span lang="EL" style="font-size:11.0pt">       ELOCTA</span></p><p class="MsoListParagraphCxSpMiddle" style="margin-left:28.35pt;text-indent: -28.35pt"><span lang="EL" style="font-size:11.0pt">3.</span><span lang="EL" style="font-size:11.0pt">    ELOCTA</span></p><p class="MsoListParagraphCxSpMiddle" style="margin-left:28.35pt;text-indent: -28.35pt"><span lang="EL" style="font-size:11.0pt">4.</span><span lang="EL" style="font-size:11.0pt">  </span></p><p class="MsoListParagraphCxSpMiddle" style="margin-left:28.35pt;text-indent: -28.35pt"><span lang="EL" style="font-size:11.0pt">5.</span><span lang="EL" style="font-size:11.0pt">    ELOCTA</span></p><p class="MsoListParagraphCxSpLast" style="margin-left:28.35pt;text-indent:-28.35pt"><span lang="EL" style="font-size:11.0pt">6.</span><span lang="EL" style="font-size:11.0pt">     </span></p><p class="MsoNormal" style="line-height:normal"></p><p class="MsoNormal" style="line-height:normal"></p><p class="MsoListParagraphCxSpFirst" style="margin-left:28.35pt;text-indent:-28.35pt; page-break-after:avoid"><b><span lang="EL" style="font-size:11.0pt">1.          ELOCTA      </span></b></p><p class="MsoListParagraphCxSpLast" style="margin-left:0in;page-break-after:avoid"></p><p class="MsoNormal" style="line-height:normal"><span lang="EL"> ELOCTA      ,     VIII,   Fc.   VIII                        .</span></p><p class="MsoNormal" style="line-height:normal"></p><p class="MsoNormal" style="line-height:normal"><span lang="EL"> ELOCTA                      A (         VIII).</span></p><p class="MsoNormal" style="line-height:normal"></p><p class="MsoNormal" style="line-height:normal"><span lang="EL"> ELOCTA                .</span></p><p class="MsoNormal" style="line-height:normal"></p><p class="MsoNormal" style="line-height:normal;page-break-after:avoid"><b><span lang="EL">   ELOCTA</span></b></p><p class="MsoNormal" style="line-height:normal"><span lang="EL">    A,   VIII     .  ELOCTA          VIII.  ELOCTA      VIII         .</span></p><p class="MsoNormal" style="line-height:normal"></p><p class="MsoNormal" style="line-height:normal"></p><p class="MsoListParagraph" style="margin-left:28.35pt;text-indent:-28.35pt; page-break-after:avoid"><b><span lang="EL" style="font-size:11.0pt">2.              ELOCTA</span></b></p><p class="MsoNormal" style="line-height:normal;page-break-after:avoid"></p><p class="MsoNormal" style="line-height:normal;page-break-after:avoid"><b><span lang="EL">   ELOCTA:</span></b></p><p class="MsoNormal" style="margin-left:28.35pt;text-indent:-28.35pt;line-height: normal"><span lang="EL" style="font-family:Symbol"></span><span lang="EL">                (   6).</span></p><p class="MsoNormal" style="line-height:normal"></p><p class="MsoNormal" style="line-height:normal;page-break-after:avoid"><b><span lang="EL">  </span></b></p><p class="MsoNormal" style="line-height:normal;page-break-after:avoid"><span lang="EL">  ,          ELOCTA.</span></p><p class="MsoNormal" style="line-height:normal;page-break-after:avoid"></p><p class="MsoNormal" style="margin-left:28.35pt;text-indent:-28.35pt;line-height: normal"><span lang="EL" style="font-family:Symbol"></span><span lang="EL">        ( ,   )  ELOCTA.         , ,    ,       .       ,          .</span></p><p class="MsoNormal" style="margin-left:28.35pt;text-indent:-28.35pt;line-height: normal"></p><p class="MsoNormal" style="margin-left:28.35pt;text-indent:-28.35pt;line-height: normal"><span lang="EL" style="font-family:Symbol"></span><span lang="EL">   ()                     VIII.   ,    ,                      .              ELOCTA,     .</span></p><p class="MsoListParagraph" style="margin-left:0in"><u><span lang="EL" style="font-size:11.0pt"></span></u></p><p class="MsoNormal" style="line-height:normal;page-break-after:avoid"><a name="_Hlk42693946"><u><span lang="EL"> </span></u></a></p><p class="MsoListParagraph" style="margin-left:0in"><span lang="EL" style="font-size:11.0pt">         ,       VIII     .</span></p><p class="MsoNormal" style="line-height:normal"><u><span lang="EL"></span></u></p><p class="MsoNormal" style="line-height:normal;page-break-after:avoid"><u><span lang="EL">   </span></u></p><p class="MsoNormal" style="line-height:normal"><span lang="EL">      (<i>central venous access device</i>, CVAD),           CVAD   ,          .</span></p><p class="MsoNormal" style="line-height:normal"></p><p class="MsoNormal" style="line-height:normal;page-break-after:avoid"><u><span lang="EL"></span></u></p><p class="MsoNormal" style="line-height:normal"><span lang="EL">     ELOCTA,            .</span></p><p class="MsoNormal" style="line-height:normal"></p><p class="MsoNormal" style="line-height:normal;page-break-after:avoid"><b><span lang="EL">   ELOCTA</span></b></p><p class="MsoNormal" style="line-height:normal"><span lang="EL">        ,         .</span></p><p class="MsoNormal" style="line-height:normal"></p><p class="MsoNormal" style="line-height:normal;page-break-after:avoid"><b><span lang="EL">  </span></b></p><p class="MsoNormal" style="line-height:normal"><span lang="EL">    ,           ,              .</span></p><p class="MsoNormal" style="line-height:normal"></p><p class="MsoNormal" style="line-height:normal;page-break-after:avoid"><b><span lang="EL">   </span></b></p><p class="MsoNormal" style="line-height:normal"><span lang="EL">         .</span></p><p class="MsoNormal" style="line-height:normal"></p><p class="MsoNormal" style="line-height:normal;page-break-after:avoid"><b><span lang="EL"> ELOCTA  </span></b></p><p class="MsoNormal" style="line-height:normal"><span lang="EL">    </span><span lang="EL">  1</span><span lang="EL">mmol</span><span lang="EL">  </span><span lang="EL">(23 mg) </span><span lang="EL"> </span><span lang="EL">,     </span><span lang="EL"> </span><span lang="EL"></span><span lang="EL">.</span></p><p class="MsoNormal" style="line-height:normal"><span lang="EL">,         ,       .           .</span></p><p class="MsoNormal" style="line-height:normal"></p><p class="MsoNormal" style="line-height:normal"></p><p class="MsoListParagraph" style="margin-left:28.35pt;text-indent:-28.35pt; page-break-after:avoid"><b><span lang="EL" style="font-size:11.0pt">3.           ELOCTA</span></b></p><p class="MsoNormal" style="line-height:normal;page-break-after:avoid"></p><p class="MsoNormal" style="line-height:normal"><span lang="EL">    ELOCTA         .               (.      ).   ,   ,    /  .</span></p><p class="MsoNormal" style="line-height:normal"></p><p class="MsoNormal" style="line-height:normal"><span lang="EL"> ELOCTA      . </span><span lang="EL">        ELOCTA (    IU)           VIII            .                 .</span></p><p class="MsoNormal" style="line-height:normal"></p><p class="MsoNormal" style="line-height:normal"><span lang="EL">              ELOCTA  .                  VIII   .</span></p><p class="MsoNormal" style="line-height:normal"></p><p class="MsoNormal" style="line-height:normal;page-break-after:avoid"><b><span lang="EL">  </span></b></p><p class="MsoNormal" style="line-height:normal"><span lang="EL">   ELOCTA            VIII    .    VIII          .</span></p><p class="MsoNormal" style="line-height:normal"></p><p class="MsoNormal" style="line-height:normal;page-break-after:avoid"><b><span lang="EL">  </span></b></p><p class="MsoNormal"><span lang="EL">   ELOCTA  50 IU    ,   3  5 .             25  65 IU    .   ,       ,         .</span></p><p class="MsoNormal" style="line-height:normal"></p><p class="MsoNormal" style="line-height:normal;page-break-after:avoid"><b><span lang="EL">    </span></b></p><p class="MsoNormal" style="line-height:normal"><span lang="EL"> ELOCTA          .      12 ,        .</span></p><p class="MsoNormal" style="line-height:normal"></p><p class="MsoNormal" style="line-height:normal;page-break-after:avoid"><b><span lang="EL">    ELOCTA   </span></b></p><p class="MsoNormal" style="line-height:normal"><span lang="EL">      .      ELOCTA        .   ,   ,    /  .</span></p><p class="MsoNormal" style="line-height:normal"></p><p class="MsoNormal" style="line-height:normal;page-break-after:avoid"><b><span lang="EL">     ELOCTA</span></b></p><p class="MsoNormal" style="line-height:normal"><span lang="EL">          .                .       ,       .</span></p><p class="MsoNormal" style="line-height:normal"></p><p class="MsoNormal" style="line-height:normal;page-break-after:avoid"><b><span lang="EL">     ELOCTA</span></b></p><p class="MsoNormal" style="line-height:normal"><span lang="EL">     ELOCTA      .      ELOCTA,       ,        .</span></p><p class="MsoNormal" style="line-height:normal"></p><p class="MsoNormal" style="line-height:normal"><span lang="EL">          ,   ,      .</span></p><p class="MsoNormal" style="line-height:normal"></p><p class="MsoNormal" style="line-height:normal"></p><p class="MsoListParagraph" style="margin-left:28.35pt;text-indent:-28.35pt; page-break-after:avoid"><b><span lang="EL" style="font-size:11.0pt">4.         </span></b></p><p class="MsoNormal" style="line-height:normal;page-break-after:avoid"></p><p class="MsoNormal" style="line-height:normal"><span lang="EL">   ,          ,        .</span></p><p class="MsoNormal" style="line-height:normal"></p><p class="MsoNormal" style="line-height:normal"><span lang="EL">  ,    ( ),      .                 :   , ,  , ,    ,   </span><span lang="EL">, </span><span lang="EL">       , , , ,   ,   , ,     ,      .</span></p><p class="MsoNormal" style="line-height:normal"></p><p class="MsoNormal" style="line-height:normal"><span lang="EL">             </span><span lang="EL"></span><span lang="EL"> VIII,      (  2)   (  1  10 ). ,          VIII (  150  )      (  1  100 ).   ,              .   ,         .</span></p><p class="MsoNormal" style="line-height:normal"></p><p class="MsoNormal" style="line-height:normal"><span lang="EL">       :</span></p><p class="MsoNormal" style="line-height:normal"></p><p class="MsoNormal" style="line-height:normal;page-break-after:avoid"><b><span lang="EL">    (    1  100 )</span></b></p><p class="MsoNormal" style="line-height:normal"><span lang="EL">K</span><span lang="EL">, ,   ,   ,   , ,     , ,     , ,  ,    ,   ,  , ,   ,  ,  ,  ,      .</span></p><p class="MsoNormal" style="line-height:normal"></p><p class="MsoNormal" style="line-height:normal;page-break-after:avoid"><b><span lang="EL">  </span></b></p><p class="MsoNormal" style="line-height:normal"><span lang="EL">    ,   ,    /  .                .       ,  <span style="color:black;background:#BFBFBF">       </span></span><span lang="EN-GB"><a href="http://www.ema.europa.eu/docs/en_GB/document_library/Template_or_form/2013/03/WC500139752.doc"><span lang="EL" style="background:lightgrey"> V</span></a></span><span lang="EL">.                   .</span></p><p class="MsoNormal" style="line-height:normal"></p><p class="MsoNormal" style="line-height:normal"></p><p class="MsoListParagraph" style="margin-left:28.35pt;text-indent:-28.35pt; page-break-after:avoid"><b><span lang="EL" style="font-size:11.0pt">5.           ELOCTA</span></b></p><p class="MsoNormal" style="line-height:normal;page-break-after:avoid"></p><p class="MsoNormal" style="line-height:normal"><span lang="EL">                 .</span></p><p class="MsoNormal" style="line-height:normal"></p><p class="MsoNormal" style="line-height:normal"><span lang="EL">                      / EXP.            .                6 .</span></p><p class="MsoNormal" style="line-height:normal"></p><p class="MsoNormal" style="line-height:normal"><span lang="EL">   (2C  8C).</span></p><p class="MsoNormal" style="line-height:normal"><span lang="EL"> .</span></p><p class="MsoNormal" style="line-height:normal"><span lang="EL">         .</span></p><p class="MsoNormal" style="line-height:normal"></p><p class="MsoNormal" style="line-height:normal"><span lang="EL">,  ELOCTA       ( 30C)          6 . K        ELOCTA         .      ,        .</span></p><p class="MsoNormal" style="line-height:normal"></p><p class="MsoNormal" style="line-height:normal"><span lang="EL">   ELOCTA,    .          ELOCTA ,     6 .     .         .</span></p><p class="MsoNormal" style="line-height:normal"></p><p class="MsoNormal" style="line-height:normal"><span lang="EL">          .               .</span></p><p class="MsoNormal" style="line-height:normal"></p><p class="MsoNormal" style="line-height:normal"><span lang="EL">    .           .               .         .</span></p><p class="MsoNormal" style="line-height:normal"></p><p class="MsoNormal" style="line-height:normal"></p><p class="MsoListParagraph" style="margin-left:28.35pt;text-indent:-28.35pt; page-break-after:avoid"><b><span lang="EL" style="font-size:11.0pt">6.            </span></b></p><p class="MsoNormal" style="line-height:normal;page-break-after:avoid"></p><p class="MsoNormal" style="line-height:normal;page-break-after:avoid"><b><span lang="EL">   ELOCTA</span></b></p><p class="MsoNormal" style="line-height:normal;page-break-after:avoid"></p><p class="MsoNormal" style="margin-left:28.35pt;text-indent:-28.35pt;line-height: normal"><span lang="EL" style="font-family:Symbol"></span><span lang="EL">       (   VIII,   Fc).   ELOCTA   250, 500, 750, 1.000, 1.500, 2.000, 3.000  4.000 IU  .</span></p><p class="MsoNormal" style="margin-left:28.35pt;text-indent:-28.35pt;line-height: normal"><span lang="EL" style="font-family:Symbol"></span><span lang="EL">    ,  , ,   ,  20,   ,      .      , .  2.</span></p><p class="MsoNormal" style="line-height:normal"></p><p class="MsoNormal" style="line-height:normal;page-break-after:avoid"><b><span lang="EL">  ELOCTA    </span></b></p><p class="MsoNormal" style="line-height:normal;page-break-after:avoid"></p><p class="MsoNormal" style="line-height:normal"><span lang="EL"> ELOCTA        .         .            ,  .   ,          .</span></p><p class="MsoNormal" style="line-height:normal"></p><p class="MsoNormal" style="line-height:normal"><span lang="EL">  ELOCTA  1  , 3 ml    , 1  , 1  , 1  , 2   , 2   1  .</span></p><p class="MsoNormal" style="line-height:normal"></p><p class="MsoNormal" style="line-height:normal;page-break-after:avoid"><b><span lang="EL"> </span></b><b><span lang="EL">   </span></b></p><p class="MsoNormal" style="line-height:normal;page-break-after:avoid"><span lang="EL">Swedish Orphan Biovitrum AB (publ)</span></p><p class="MsoNormal" style="line-height:normal;page-break-after:avoid"><span lang="EL">SE-112 76 Stockholm</span></p><p class="MsoNormal" style="line-height:normal"><span lang="EL"></span></p><p class="MsoNormal" style="line-height:normal"></p><p class="MsoNormal" style="line-height:normal;page-break-after:avoid"><b><span lang="EL">          </span></b></p><p class="MsoNormal" style="line-height:normal;page-break-after:avoid"></p><p class="MsoNormal" style="line-height:normal"><span lang="EL">              : </span><span lang="EN-GB"><a href="http://www.ema.europa.eu/"><span lang="EL">http://www.ema.europa.eu</span></a></span><span lang="EL">.</span></p><p class="MsoNormal" style="line-height:normal"></p><p class="MsoNormal" style="line-height:normal"></p><p class="MsoNormal" style="line-height:normal"><span lang="EL">           </span></p><p class="MsoNormal" style="line-height:normal"></p><span lang="EL" style='font-size:11.0pt;font-family:"Times New Roman",serif'><br clear="all" style="page-break-before:always"/> </span><br clear="all" style="page-break-before:always"/><p class="MsoNormal" style="line-height:normal;page-break-after:avoid"><b><span lang="EL">     </span></b></p><p class="MsoNormal" style="line-height:normal;page-break-after:avoid"></p><p class="MsoNormal" style="line-height:normal;page-break-after:avoid"><span lang="EL"> ELOCTA    (IV)                .     ELOCTA :</span></p><p class="MsoNormal" style="line-height:normal;page-break-after:avoid"></p><p class="MsoNormal" style="line-height:normal;page-break-after:avoid"><span style="position:relative;z-index:251641856"><span style="position:absolute; left:72px;top:-21532px;width:867px;height:1px"> <table align="left" cellpadding="0" cellspacing="0"> <tr> <td height="0" width="0"></td> <td width="438"></td> <td width="79"></td> <td width="350"></td> </tr> <tr> <td height="1"></td> <td align="left" valign="top"><img height="1" src="#image0" width="292"/></td> <td></td> <td align="left" valign="top"><img alt="A) 1   B) 3 ml     C) 1    D) 1   E) 1   F) 2    G) 2   H) 1   " height="1" src="#image1" width="233"/></td> </tr> </table> </span></span></p><p class="MsoNormal" style="line-height:normal;page-break-after:avoid"></p><p class="MsoNormal" style="line-height:normal;page-break-after:avoid"></p><p class="MsoNormal" style="line-height:normal;page-break-after:avoid"></p><p class="MsoNormal" style="line-height:normal;page-break-after:avoid"></p><p class="MsoNormal" style="margin-right:-.1pt;line-height:normal;page-break-after: avoid"></p><p class="MsoNormal" style="margin-right:-.1pt;line-height:normal;page-break-after: avoid"></p><p class="MsoNormal" style="margin-right:-.1pt;line-height:normal"></p><p class="MsoNormal" style="margin-right:-.1pt;line-height:normal"></p><p class="MsoNormal" style="margin-right:-.1pt;line-height:normal"></p><p class="MsoNormal" style="margin-right:-.1pt;line-height:normal"></p><p class="MsoNormal" style="margin-right:-.1pt;line-height:normal"></p><br clear="ALL"/><p class="MsoNormal" style="line-height:normal"><span lang="EL"> ELOCTA            .</span></p><p class="MsoNormal" style="margin-right:-.1pt;line-height:normal"></p><p class="MsoNormal" style="margin-right:-.1pt;line-height:normal;page-break-after: avoid"><span lang="EL">        .</span></p><p class="MsoNormal" style="margin-right:-.1pt;line-height:normal"></p><p class="MsoNormal" style="margin-right:-.1pt;line-height:normal;page-break-after: avoid"><b><span lang="EL">:</span></b></p><p class="MsoNormal" style="margin-right:-.1pt;line-height:normal;page-break-after: avoid"></p><p class="MsoNormal" style="line-height:12.0pt"><span lang="EN-GB"><img border="0" height="738" id="Picture 2" src="#image2" width="624"/></span></p><p class="MsoNormal" style="line-height:normal"></p><p class="MsoNormal" style="line-height:normal;page-break-after:avoid"><b><span lang="EL"> ( ):</span></b></p><p class="MsoListParagraphCxSpFirst" style="margin-left:0in;page-break-after: avoid"></p><p class="MsoListParagraphCxSpMiddle" style="margin-left:0in;page-break-after: avoid"><span lang="EL" style="font-size:11.0pt"> ELOCTA         (E)      .</span></p><p class="MsoListParagraphCxSpLast" style="margin-left:0in;page-break-after:avoid"></p><p class="MsoNormal" style="line-height:12.0pt;text-autospace:none"><span lang="EN-GB"><img border="0" height="787" id="Picture 1" src="#image3" width="624"/></span></p>
			</div>
		</text>
		
    	    
		
</section>
			    
    	    
		
</section>
			    
    	    
		
</section>
			    
    	    
		
</section>
			    
    	    
		
	
</section>
							<!-- sections can repeat as necessary -->
						</Composition>
					</resource>
				</entry>
				
			</Bundle>
		</resource>
	</entry>
</Bundle>