<?xml version="1.0" encoding="UTF-8"?>
<!-- This is a template for a FHIR resource, and needs items (marked with "${}") replacing to make a real instance -->
<!-- The resulting instance is a Bundle of Bundles, each of which is a document (having a Composition, and supporting resources) -->
<!-- 2020-02-22 -->
<!-- This is for FHIR version R5 Preview 2 (May 2020) -->
<Bundle xmlns="http://hl7.org/fhir">
	<type value="collection"/>
	<!-- Repeat at this level per document -->
	<entry>
		<fullUrl value="urn:uuid:2e83caea-9f89-46c5-b4d9-8ca87490109b"/>
		<!-- Top level of each document is a also FHIR Bundle, of type "document"
		 see http://hl7.org/fhir/documents.html, http://hl7.org/fhir/bundle.html
	 	 All the other resources for this document are within this. -->
		<resource>
            <Bundle>
            	<!-- When PUTing, some servers mandate an id here to match the existing id -->
            	<id value="6aac72b0-f156-4b8b-93b1-15954c1f8c11"/>
				<!-- document bundles must have an identifier (bdl-9) -->
				<identifier>
					<!-- possibly different identifier types may be needed here -->
					<system value="http://ema.europa.eu/fhir/identifier/documentid"/>
					<value value="${instance.bundle[n].Identifier}"/>
				</identifier>
				<!-- fixed code -->
				<type value="document" /> 
            	<!-- document bundles must have a date (bdl-10) -->
            	<timestamp value="2021-06-07T19:52:56Z"/>
				<!-- a repeating set of entry elements, each with a FHIR resource inside -->
				<entry>
					<!-- fullUrl is mandatory for each entry in document Bundle. It is a random uuid. http://build.fhir.org/bundle.html#bundle-unique -->
					<fullUrl value="urn:uuid:12972628-88b1-447c-b369-c146c3748dce"/>
					<resource>
						<!-- the first resource must be Composition (bdl-11) -->
						<!-- This is the overall document structure. -->
						<!-- see definition http://hl7.org/fhir/composition.html, and similar for other resources -->
                        <Composition>
                        	<!-- images if requied within html text of this document -->
							
							<contained>
                                <Binary>
                                	<id value="image0"/>
                                	<!-- example format -->
                                	<contentType value="image/png"/>
									<!-- data is base 64 encoded, actual bytes of the image png file -->
                                	<data value=""/>
								</Binary>
							</contained>
							<!-- this exension is necessary per image -->
                <extension url="http://ema.europa.eu/fhir/extension/dummyValidationReference">
                        		<valueReference>
                        			<reference value="#image0"/>
                        		</valueReference>
               </extension>
              
							<contained>
                                <Binary>
                                	<id value="image1"/>
                                	<!-- example format -->
                                	<contentType value="image/png"/>
									<!-- data is base 64 encoded, actual bytes of the image png file -->
                                	<data value=""/>
								</Binary>
							</contained>
							<!-- this exension is necessary per image -->
                <extension url="http://ema.europa.eu/fhir/extension/dummyValidationReference">
                        		<valueReference>
                        			<reference value="#image1"/>
                        		</valueReference>
               </extension>
              
							<contained>
                                <Binary>
                                	<id value="image2"/>
                                	<!-- example format -->
                                	<contentType value="image/png"/>
									<!-- data is base 64 encoded, actual bytes of the image png file -->
                                	<data value=""/>
								</Binary>
							</contained>
							<!-- this exension is necessary per image -->
                <extension url="http://ema.europa.eu/fhir/extension/dummyValidationReference">
                        		<valueReference>
                        			<reference value="#image2"/>
                        		</valueReference>
               </extension>
              
							<contained>
                                <Binary>
                                	<id value="image3"/>
                                	<!-- example format -->
                                	<contentType value="image/png"/>
									<!-- data is base 64 encoded, actual bytes of the image png file -->
                                	<data value=""/>
								</Binary>
							</contained>
							<!-- this exension is necessary per image -->
                <extension url="http://ema.europa.eu/fhir/extension/dummyValidationReference">
                        		<valueReference>
                        			<reference value="#image3"/>
                        		</valueReference>
               </extension>
              
              
              <contained>
                          <Binary>
                            <id value="stylesheet0"/>
                            <!-- example format -->
                            <contentType value="stylesheet/css"/>
                            <!-- data is base 64 encoded, actual bytes of the image png file -->
                            <data value=""/>
                          </Binary>
                        </contained>
                        <!-- this exension is necessary per image -->
                        <extension url="http://ema.europa.eu/fhir/extension/dummyValidationReference">
                          <valueReference>
                            <reference value="#stylesheet0"/>
                          </valueReference>
                        </extension>
              
              <status value="final"/>
							<!-- document type -->
							<type>
								<coding>
									<system value="http://spor.ema.europa.eu/v1/lists/100000155531"/>
									<code value="${document[n].documentTypeCode}"/>
									<display value="${document[n].documentTypeDisplay}"/>
								</coding>
							</type>
							<subject>
								<!-- links to the List resource in this bundle - local url format -->
								<reference value="[]"/> <!-- local url format -->
								<!--reference value="${instance.bundle[n].listUuid}"/--> <!-- uuid url format. Possible alternate format may be neeed -->
							</subject>
                        	<!-- mandatory date of the document -->
                        	<date value="2021-02-01"/>
							<author>
								<identifier>
									<system value="http://spor.ema.europa.eu/v1/locations" />
									<value value="" />
								</identifier>
							</author>
                        	<title value="${document[n].title}"/>
							<relatesTo>
								<code value="appends"/>
								<targetReference>
									<!-- reference to another Composition -->
									<reference value="${document[n].relatesTo}"/>
								</targetReference>
							</relatesTo>
							<!-- main sections of the document, to follow the QRD template -->
	               			
<section>
	
		
			<title value="A. ETIQUETADO"/>
				<code>
					<coding>
						<system value="http://spor.ema.europa.eu/v1/example-sections"/>
						<code value="${document[n].section[n].subsection[n].typeCode}"/>
						<display value="${document[n].section[n].subsection[n].typeDisplay}"/>
					</coding>
				</code>
		<text>
			<status value="additional"/>
			<div xmlns="http://www.w3.org/1999/xhtml">
		    <p class="MsoNormal"></p><p class="MsoNormal"></p><span lang="ES" style='font-size:11.0pt;font-family:"Times New Roman",serif; color:black'><br clear="all" style="page-break-before:always"/> </span><br clear="all" style="page-break-before:always"/>
			</div>
		</text>
		
		
    	    
				
			    
						
		               
<section>
			<title value="INFORMACIÓN QUE DEBE FIGURAR EN EL EMBALAJE EXTERIOR"/>
				<code>
					<coding>
						<system value="http://spor.ema.europa.eu/v1/example-sections"/>
						<code value="${document[n].section[n].subsection[n].typeCode}"/>
						<display value="${document[n].section[n].subsection[n].typeDisplay}"/>
					</coding>
				</code>
		<text>
			<status value="additional"/>
			<div xmlns="http://www.w3.org/1999/xhtml">
		    <div style="border:solid windowtext 1.0pt;padding:1.0pt 4.0pt 1.0pt 4.0pt"> <p class="MsoNormal" style="margin-left:28.35pt;text-indent:-28.35pt;border:none; padding:0in"></p> <p class="MsoNormal" style="margin-left:28.35pt;text-indent:-28.35pt;border:none; padding:0in"><b><span lang="ES" style="font-size:11.0pt;color:black">GONAL‑f 75 UI, CAJA DE 1, 5, 10 VIALES Y 1, 5, 10 JERINGAS PRECARGADAS</span></b></p> </div><p class="MsoNormal"></p><p class="MsoNormal"></p>
			</div>
		</text>
		
    	    

			    
		               
<section>
			<title value="1.       NOMBRE DEL MEDICAMENTO"/>
				<code>
					<coding>
						<system value="http://spor.ema.europa.eu/v1/example-sections"/>
						<code value="${document[n].section[n].subsection[n].typeCode}"/>
						<display value="${document[n].section[n].subsection[n].typeDisplay}"/>
					</coding>
				</code>
		<text>
			<status value="additional"/>
			<div xmlns="http://www.w3.org/1999/xhtml">
		    <p class="MsoNormal"></p><p class="MsoNormal"><span lang="ES" style="font-size:11.0pt;color:black">GONAL‑f 75 UI </span><span lang="ES" style="font-size:11.0pt;color:black">polvo y disolvente para solución inyectable</span></p><p class="MsoNormal"><span lang="PT" style="font-size:11.0pt;color:black">folitropina alfa</span></p><p class="MsoNormal"></p><p class="MsoNormal"></p>
			</div>
		</text>
		
    	    
		
</section>
			    
    	    

			    
		               
<section>
			<title value="2.       PRINCIPIO(S) ACTIVO(S)"/>
				<code>
					<coding>
						<system value="http://spor.ema.europa.eu/v1/example-sections"/>
						<code value="${document[n].section[n].subsection[n].typeCode}"/>
						<display value="${document[n].section[n].subsection[n].typeDisplay}"/>
					</coding>
				</code>
		<text>
			<status value="additional"/>
			<div xmlns="http://www.w3.org/1999/xhtml">
		    <p class="MsoNormal"></p><p class="MsoNormal"><span lang="ES" style="font-size:11.0pt;color:black">Cada vial contiene 5,5 microgramos de folitropina alfa, equivalente a 75 UI. Cada ml de la solución reconstituida contiene 75 UI.</span></p><p class="MsoNormal"></p><p class="MsoNormal"></p>
			</div>
		</text>
		
    	    
		
</section>
			    
    	    

			    
		               
<section>
			<title value="3.       LISTA DE EXCIPIENTES"/>
				<code>
					<coding>
						<system value="http://spor.ema.europa.eu/v1/example-sections"/>
						<code value="${document[n].section[n].subsection[n].typeCode}"/>
						<display value="${document[n].section[n].subsection[n].typeDisplay}"/>
					</coding>
				</code>
		<text>
			<status value="additional"/>
			<div xmlns="http://www.w3.org/1999/xhtml">
		    <p class="MsoNormal"></p><p class="MsoNormal"><span lang="ES" style="font-size:11.0pt;color:black">Excipientes: sacarosa, dihidrogenofosfato de sodio monohidrato, hidrogenofosfato de disodio dihidrato, metionina, polisorbato 20, ácido fosfórico concentrado e hidróxido de sodio.</span></p><p class="MsoNormal"><span lang="ES" style="font-size:11.0pt;color:black">Disolvente para solución inyectable:  agua para preparaciones inyectables.</span></p><p class="MsoNormal"></p><p class="MsoNormal"></p><div style="border:solid windowtext 1.0pt;padding:1.0pt 4.0pt 1.0pt 4.0pt"> <p class="MsoBodyText2" style="line-height:normal;border:none;padding:0in"><span lang="ES" style="font-size:11.0pt;color:black">4.       FORMA FARMACÉUTICA Y CONTENIDO DEL ENVASE</span></p> </div><p class="MsoNormal"></p><p class="MsoNormal"><span lang="ES" style="font-size:11.0pt;color:black">1 vial de polvo para solución inyectable.</span></p><p class="MsoNormal"><span lang="ES" style="font-size:11.0pt;color:black">1 jeringa precargada de 1 ml de disolvente.</span></p><p class="MsoNormal"></p><p class="MsoNormal"><span lang="ES" style="font-size:11.0pt;color:black; background:#D9D9D9">5 viales de polvo para solución inyectable.</span></p><p class="MsoNormal"><span lang="ES" style="font-size:11.0pt;color:black; background:#D9D9D9">5 jeringas precargadas de 1 ml de disolvente.</span></p><p class="MsoNormal"></p><p class="MsoNormal"><span lang="ES" style="font-size:11.0pt;color:black; background:#D9D9D9">10 viales de polvo para solución inyectable.</span></p><p class="MsoNormal"><span lang="ES" style="font-size:11.0pt;color:black; background:#D9D9D9">10 jeringas precargadas de 1 ml de disolvente.</span></p><p class="MsoNormal"></p><p class="MsoNormal"></p>
			</div>
		</text>
		
    	    
		
</section>
			    
    	    

			    
		               
<section>
			<title value="5.       FORMA Y VÍA(S) DE ADMINISTRACIÓN"/>
				<code>
					<coding>
						<system value="http://spor.ema.europa.eu/v1/example-sections"/>
						<code value="${document[n].section[n].subsection[n].typeCode}"/>
						<display value="${document[n].section[n].subsection[n].typeDisplay}"/>
					</coding>
				</code>
		<text>
			<status value="additional"/>
			<div xmlns="http://www.w3.org/1999/xhtml">
		    <p class="MsoNormal"></p><p class="MsoNormal"><span lang="ES" style="font-size:11.0pt;color:black">Leer el prospecto antes de utilizar este medicamento.</span></p><p class="MsoNormal"><span lang="ES" style="font-size:11.0pt;color:black">Vía subcutánea.</span></p><p class="MsoNormal"></p><p class="MsoNormal"></p>
			</div>
		</text>
		
    	    
		
</section>
			    
    	    

			    
		               
<section>
			<title value="6.       ADVERTENCIA ESPECIAL DE QUE EL MEDICAMENTO DEBE MANTENERSE FUERA DE LA VISTA Y DEL ALCANCE DE LOS NIÑOS"/>
				<code>
					<coding>
						<system value="http://spor.ema.europa.eu/v1/example-sections"/>
						<code value="${document[n].section[n].subsection[n].typeCode}"/>
						<display value="${document[n].section[n].subsection[n].typeDisplay}"/>
					</coding>
				</code>
		<text>
			<status value="additional"/>
			<div xmlns="http://www.w3.org/1999/xhtml">
		    <p class="MsoNormal"></p><p class="MsoNormal"><span lang="ES" style="font-size:11.0pt;color:black">Mantener fuera de la vista y del alcance de los niños.</span></p><p class="MsoNormal"></p><p class="MsoNormal"></p>
			</div>
		</text>
		
    	    
		
</section>
			    
    	    

			    
		               
<section>
			<title value="7.       OTRA(S) ADVERTENCIA(S) ESPECIAL(ES), SI ES NECESARIO"/>
				<code>
					<coding>
						<system value="http://spor.ema.europa.eu/v1/example-sections"/>
						<code value="${document[n].section[n].subsection[n].typeCode}"/>
						<display value="${document[n].section[n].subsection[n].typeDisplay}"/>
					</coding>
				</code>
		<text>
			<status value="additional"/>
			<div xmlns="http://www.w3.org/1999/xhtml">
		    <p class="MsoNormal" style="page-break-after:avoid"></p><p class="MsoNormal"></p>
			</div>
		</text>
		
    	    
		
</section>
			    
    	    

			    
		               
<section>
			<title value="8.       FECHA DE CADUCIDAD"/>
				<code>
					<coding>
						<system value="http://spor.ema.europa.eu/v1/example-sections"/>
						<code value="${document[n].section[n].subsection[n].typeCode}"/>
						<display value="${document[n].section[n].subsection[n].typeDisplay}"/>
					</coding>
				</code>
		<text>
			<status value="additional"/>
			<div xmlns="http://www.w3.org/1999/xhtml">
		    <p class="MsoNormal" style="page-break-after:avoid"></p><p class="MsoNormal"><span lang="ES" style="font-size:11.0pt;color:black">CAD</span></p><p class="MsoNormal"></p><p class="MsoNormal"></p>
			</div>
		</text>
		
    	    
		
</section>
			    
    	    

			    
		               
<section>
			<title value="9.       CONDICIONES ESPECIALES DE CONSERVACIÓN"/>
				<code>
					<coding>
						<system value="http://spor.ema.europa.eu/v1/example-sections"/>
						<code value="${document[n].section[n].subsection[n].typeCode}"/>
						<display value="${document[n].section[n].subsection[n].typeDisplay}"/>
					</coding>
				</code>
		<text>
			<status value="additional"/>
			<div xmlns="http://www.w3.org/1999/xhtml">
		    <p class="MsoNormal" style="page-break-after:avoid"></p><p class="MsoBodyText3"><span lang="ES" style="font-size:11.0pt;color:black">No conservar a temperatura superior a 25ºC. Conservar en el embalaje original para protegerlo de la luz.</span></p><p class="MsoNormal"></p><p class="MsoNormal"></p>
			</div>
		</text>
		
    	    
		
</section>
			    
    	    

			    
		               
<section>
			<title value="10.     PRECAUCIONES ESPECIALES DE ELIMINACIÓN DEL MEDICAMENTO NO UTILIZADO Y DE LOS MATERIALES DERIVADOS DE SU USO (CUANDO CORRESPONDA)"/>
				<code>
					<coding>
						<system value="http://spor.ema.europa.eu/v1/example-sections"/>
						<code value="${document[n].section[n].subsection[n].typeCode}"/>
						<display value="${document[n].section[n].subsection[n].typeDisplay}"/>
					</coding>
				</code>
		<text>
			<status value="additional"/>
			<div xmlns="http://www.w3.org/1999/xhtml">
		    <p class="MsoNormal"></p><p class="MsoNormal"><span lang="ES" style="font-size:11.0pt;color:black">Desechar la solución no utilizada.</span></p><p class="MsoNormal"></p><p class="MsoNormal"></p>
			</div>
		</text>
		
    	    
		
</section>
			    
    	    

			    
		               
<section>
			<title value="11.     NOMBRE Y DIRECCIÓN DEL TITULAR DE LA AUTORIZACIÓN DE COMERCIALIZACIÓN"/>
				<code>
					<coding>
						<system value="http://spor.ema.europa.eu/v1/example-sections"/>
						<code value="${document[n].section[n].subsection[n].typeCode}"/>
						<display value="${document[n].section[n].subsection[n].typeDisplay}"/>
					</coding>
				</code>
		<text>
			<status value="additional"/>
			<div xmlns="http://www.w3.org/1999/xhtml">
		    <p class="MsoNormal"></p><p class="Listenabsatz1" style="margin:0in;margin-bottom:.0001pt;line-height: normal;page-break-after:avoid"><span lang="ES" style="font-size:11.0pt">Merck Europe B.V.</span></p><p class="Listenabsatz1" style="margin:0in;margin-bottom:.0001pt;line-height: normal;page-break-after:avoid"><span lang="ES" style="font-size:11.0pt">Gustav Mahlerplein 102</span></p><p class="Listenabsatz1" style="margin:0in;margin-bottom:.0001pt;line-height: normal;page-break-after:avoid"><span lang="ES" style="font-size:11.0pt">1082 MA Amsterdam</span></p><p class="MsoNormal"><span lang="ES" style="font-size:11.0pt">Países Bajos</span></p><p class="MsoNormal"></p><p class="MsoNormal"></p>
			</div>
		</text>
		
    	    
		
</section>
			    
    	    

			    
		               
<section>
			<title value="12.     NÚMERO(S) DE AUTORIZACIÓN DE COMERCIALIZACIÓN"/>
				<code>
					<coding>
						<system value="http://spor.ema.europa.eu/v1/example-sections"/>
						<code value="${document[n].section[n].subsection[n].typeCode}"/>
						<display value="${document[n].section[n].subsection[n].typeDisplay}"/>
					</coding>
				</code>
		<text>
			<status value="additional"/>
			<div xmlns="http://www.w3.org/1999/xhtml">
		    <p class="MsoNormal"></p><p class="MsoNormal"><span lang="ES" style="font-size:11.0pt;color:black">EU/1/95/001/025   1 vial de polvo para solución inyectable</span></p><p class="MsoNormal"><span lang="ES" style="font-size:11.0pt;color:black">                            1 jeringa precargada de disolvente</span></p><p class="MsoNormal"></p><p class="MsoNormal"><span lang="ES" style="font-size:11.0pt;color:black; background:#D9D9D9">EU/1/95/001/026   5 viales de polvo para solución inyectable</span></p><p class="MsoNormal"><span lang="ES" style="font-size:11.0pt;color:black; background:#D9D9D9">                            5 jeringas precargadas de disolvente</span></p><p class="MsoNormal"></p><p class="MsoNormal"><span lang="ES" style="font-size:11.0pt;color:black; background:#D9D9D9">EU/1/95/001/027   10 viales de polvo para solución inyectable</span></p><p class="MsoNormal"><span lang="ES" style="font-size:11.0pt;color:black; background:#D9D9D9">                            10 jeringas precargadas de disolvente</span></p><p class="MsoNormal"></p><p class="MsoNormal"></p>
			</div>
		</text>
		
    	    
		
</section>
			    
    	    

			    
		               
<section>
			<title value="13.     NÚMERO DE LOTE"/>
				<code>
					<coding>
						<system value="http://spor.ema.europa.eu/v1/example-sections"/>
						<code value="${document[n].section[n].subsection[n].typeCode}"/>
						<display value="${document[n].section[n].subsection[n].typeDisplay}"/>
					</coding>
				</code>
		<text>
			<status value="additional"/>
			<div xmlns="http://www.w3.org/1999/xhtml">
		    <p class="MsoNormal"></p><p class="MsoBodyText3"><span lang="ES" style="font-size:11.0pt;color:black">Lote</span></p><p class="MsoNormal"><span lang="ES" style="font-size:11.0pt;color:black">Lote de disolvente</span></p><p class="MsoNormal"></p><p class="MsoNormal"></p>
			</div>
		</text>
		
    	    
		
</section>
			    
    	    

			    
		               
<section>
			<title value="14.     CONDICIONES GENERALES DE DISPENSACIÓN"/>
				<code>
					<coding>
						<system value="http://spor.ema.europa.eu/v1/example-sections"/>
						<code value="${document[n].section[n].subsection[n].typeCode}"/>
						<display value="${document[n].section[n].subsection[n].typeDisplay}"/>
					</coding>
				</code>
		<text>
			<status value="additional"/>
			<div xmlns="http://www.w3.org/1999/xhtml">
		    <p class="MsoNormal"></p><p class="MsoNormal"></p>
			</div>
		</text>
		
    	    
		
</section>
			    
    	    

			    
		               
<section>
			<title value="15.     INSTRUCCIONES DE USO"/>
				<code>
					<coding>
						<system value="http://spor.ema.europa.eu/v1/example-sections"/>
						<code value="${document[n].section[n].subsection[n].typeCode}"/>
						<display value="${document[n].section[n].subsection[n].typeDisplay}"/>
					</coding>
				</code>
		<text>
			<status value="additional"/>
			<div xmlns="http://www.w3.org/1999/xhtml">
		    <p class="MsoNormal" style="page-break-after:avoid"></p><p class="MsoNormal"></p>
			</div>
		</text>
		
    	    
		
</section>
			    
    	    

			    
		               
<section>
			<title value="16.     INFORMACIÓN EN BRAILLE"/>
				<code>
					<coding>
						<system value="http://spor.ema.europa.eu/v1/example-sections"/>
						<code value="${document[n].section[n].subsection[n].typeCode}"/>
						<display value="${document[n].section[n].subsection[n].typeDisplay}"/>
					</coding>
				</code>
		<text>
			<status value="additional"/>
			<div xmlns="http://www.w3.org/1999/xhtml">
		    <p class="MsoNormal" style="page-break-after:avoid"></p><p class="MsoNormal"><span lang="ES" style="font-size:11.0pt;color:black">gonal‑f 75 ui</span></p><p class="MsoNormal"></p><p align="left" class="MsoBodyText" style="text-align:left;page-break-after:auto"></p>
			</div>
		</text>
		
    	    
		
</section>
			    
    	    

			    
		               
<section>
			<title value="17.     IDENTIFICADOR ÚNICO - CÓDIGO DE BARRAS 2D"/>
				<code>
					<coding>
						<system value="http://spor.ema.europa.eu/v1/example-sections"/>
						<code value="${document[n].section[n].subsection[n].typeCode}"/>
						<display value="${document[n].section[n].subsection[n].typeDisplay}"/>
					</coding>
				</code>
		<text>
			<status value="additional"/>
			<div xmlns="http://www.w3.org/1999/xhtml">
		    <p class="MsoNormal" style="page-break-after:avoid"></p><p class="MsoNormal"><span lang="ES" style="font-size:11.0pt;color:black; background:#D9D9D9">Incluido el código de barras 2D que lleva el identificador único.</span></p><p class="MsoNormal"></p><p class="MsoNormal"></p>
			</div>
		</text>
		
    	    
		
</section>
			    
    	    

			    
		               
<section>
			<title value="18.     iDENTIFICADOR ÚNICO - INFORMACIÓN EN CARACTERES VISUALES"/>
				<code>
					<coding>
						<system value="http://spor.ema.europa.eu/v1/example-sections"/>
						<code value="${document[n].section[n].subsection[n].typeCode}"/>
						<display value="${document[n].section[n].subsection[n].typeDisplay}"/>
					</coding>
				</code>
		<text>
			<status value="additional"/>
			<div xmlns="http://www.w3.org/1999/xhtml">
		    <p class="MsoNormal" style="page-break-after:avoid"></p><p class="MsoNormal"><span lang="ES" style="font-size:11.0pt">PC</span></p><p class="MsoNormal"><span lang="ES" style="font-size:11.0pt">SN</span></p><p class="MsoNormal"><span lang="ES" style="font-size:11.0pt">NN</span></p><p class="MsoNormal"></p><span lang="ES" style='font-size:11.0pt;font-family:"Times New Roman",serif; color:black'><br clear="all" style="page-break-before:always"/> </span><br clear="all" style="page-break-before:always"/>
			</div>
		</text>
		
    	    
		
</section>
			    
    	    
		
</section>
			    
    	    
				
			    
						
		               
<section>
			<title value="INFORMACIÓN MÍNIMA QUE DEBE INCLUIRSE EN PEQUEÑOS ACONDICIONAMIENTOS PRIMARIOS"/>
				<code>
					<coding>
						<system value="http://spor.ema.europa.eu/v1/example-sections"/>
						<code value="${document[n].section[n].subsection[n].typeCode}"/>
						<display value="${document[n].section[n].subsection[n].typeDisplay}"/>
					</coding>
				</code>
		<text>
			<status value="additional"/>
			<div xmlns="http://www.w3.org/1999/xhtml">
		    <div style="border:solid windowtext 1.0pt;padding:2.0pt 4.0pt 1.0pt 4.0pt"> <p class="MsoNormal" style="border:none;padding:0in"></p> <p class="MsoNormal" style="border:none;padding:0in"><b><span lang="ES" style="font-size:11.0pt;color:black">GONAL‑f 75 UI, ETIQUETA DEL VIAL</span></b></p> </div><p class="MsoNormal"></p><p class="MsoNormal"></p>
			</div>
		</text>
		
    	    

			    
		               
<section>
			<title value="1.       NOMBRE DEL MEDICAMENTO Y VÍA(S) DE ADMINISTRACIÓN"/>
				<code>
					<coding>
						<system value="http://spor.ema.europa.eu/v1/example-sections"/>
						<code value="${document[n].section[n].subsection[n].typeCode}"/>
						<display value="${document[n].section[n].subsection[n].typeDisplay}"/>
					</coding>
				</code>
		<text>
			<status value="additional"/>
			<div xmlns="http://www.w3.org/1999/xhtml">
		    <p class="MsoNormal"></p><p class="MsoNormal"><span lang="ES" style="font-size:11.0pt;color:black">GONAL‑f 75 UI polvo para solución inyectable</span></p><p class="MsoNormal"><span lang="ES" style="font-size:11.0pt;color:black">folitropina alfa</span></p><p class="MsoNormal"><span lang="ES" style="font-size:11.0pt;color:black">SC</span></p><p class="MsoNormal"></p><p class="MsoNormal"></p>
			</div>
		</text>
		
    	    
		
</section>
			    
    	    

			    
		               
<section>
			<title value="2.       FORMA DE ADMINISTRACIÓN"/>
				<code>
					<coding>
						<system value="http://spor.ema.europa.eu/v1/example-sections"/>
						<code value="${document[n].section[n].subsection[n].typeCode}"/>
						<display value="${document[n].section[n].subsection[n].typeDisplay}"/>
					</coding>
				</code>
		<text>
			<status value="additional"/>
			<div xmlns="http://www.w3.org/1999/xhtml">
		    <p class="MsoNormal"></p><p class="MsoNormal"></p>
			</div>
		</text>
		
    	    
		
</section>
			    
    	    

			    
		               
<section>
			<title value="3.       FECHA DE CADUCIDAD"/>
				<code>
					<coding>
						<system value="http://spor.ema.europa.eu/v1/example-sections"/>
						<code value="${document[n].section[n].subsection[n].typeCode}"/>
						<display value="${document[n].section[n].subsection[n].typeDisplay}"/>
					</coding>
				</code>
		<text>
			<status value="additional"/>
			<div xmlns="http://www.w3.org/1999/xhtml">
		    <p class="MsoHeader"></p><p class="MsoNormal"><span lang="ES" style="font-size:11.0pt;color:black">CAD</span></p><p class="MsoNormal"></p><p class="MsoNormal"></p>
			</div>
		</text>
		
    	    
		
</section>
			    
    	    

			    
		               
<section>
			<title value="4.       NÚMERO DE LOTE"/>
				<code>
					<coding>
						<system value="http://spor.ema.europa.eu/v1/example-sections"/>
						<code value="${document[n].section[n].subsection[n].typeCode}"/>
						<display value="${document[n].section[n].subsection[n].typeDisplay}"/>
					</coding>
				</code>
		<text>
			<status value="additional"/>
			<div xmlns="http://www.w3.org/1999/xhtml">
		    <p class="MsoNormal" style="margin-left:28.35pt;text-indent:-28.35pt"></p><p class="MsoNormal"><span lang="ES" style="font-size:11.0pt;color:black">Lote</span></p><p class="MsoNormal" style="margin-left:28.35pt;text-indent:-28.35pt"></p><p class="MsoNormal" style="margin-left:28.35pt;text-indent:-28.35pt"></p>
			</div>
		</text>
		
    	    
		
</section>
			    
    	    

			    
		               
<section>
			<title value="5.       CONTENIDO EN PESO, EN VOLUMEN O EN UNIDADES"/>
				<code>
					<coding>
						<system value="http://spor.ema.europa.eu/v1/example-sections"/>
						<code value="${document[n].section[n].subsection[n].typeCode}"/>
						<display value="${document[n].section[n].subsection[n].typeDisplay}"/>
					</coding>
				</code>
		<text>
			<status value="additional"/>
			<div xmlns="http://www.w3.org/1999/xhtml">
		    <p class="MsoNormal"></p><p class="MsoNormal"><span lang="ES" style="font-size:11.0pt;color:black; background:#BFBFBF">75 UI</span></p><p class="MsoNormal"></p><p class="MsoNormal"></p>
			</div>
		</text>
		
    	    
		
</section>
			    
    	    

			    
		               
<section>
			<title value="6.       OTROS"/>
				<code>
					<coding>
						<system value="http://spor.ema.europa.eu/v1/example-sections"/>
						<code value="${document[n].section[n].subsection[n].typeCode}"/>
						<display value="${document[n].section[n].subsection[n].typeDisplay}"/>
					</coding>
				</code>
		<text>
			<status value="additional"/>
			<div xmlns="http://www.w3.org/1999/xhtml">
		    <p class="MsoNormal"></p><p class="MsoNormal"></p><span lang="ES" style='font-size:11.0pt;font-family:"Times New Roman",serif; color:black'><br clear="all" style="page-break-before:always"/> </span><br clear="all" style="page-break-before:always"/>
			</div>
		</text>
		
    	    
		
</section>
			    
    	    

			    
		               
<section>
			<title value="1.       NOMBRE DEL MEDICAMENTO Y VÍA(S) DE ADMINISTRACIÓN"/>
				<code>
					<coding>
						<system value="http://spor.ema.europa.eu/v1/example-sections"/>
						<code value="${document[n].section[n].subsection[n].typeCode}"/>
						<display value="${document[n].section[n].subsection[n].typeDisplay}"/>
					</coding>
				</code>
		<text>
			<status value="additional"/>
			<div xmlns="http://www.w3.org/1999/xhtml">
		    <p class="MsoNormal"></p><p class="MsoNormal"><span lang="ES" style="font-size:11.0pt;color:black">GONAL‑f 75 UI polvo para solución inyectable</span></p><p class="MsoNormal"><span lang="ES" style="font-size:11.0pt;color:black">folitropina alfa</span></p><p class="MsoNormal"><span lang="ES" style="font-size:11.0pt;color:black">SC</span></p><p class="MsoNormal"></p><p class="MsoNormal"></p>
			</div>
		</text>
		
    	    
		
</section>
			    
    	    

			    
		               
<section>
			<title value="2.       FORMA DE ADMINISTRACIÓN"/>
				<code>
					<coding>
						<system value="http://spor.ema.europa.eu/v1/example-sections"/>
						<code value="${document[n].section[n].subsection[n].typeCode}"/>
						<display value="${document[n].section[n].subsection[n].typeDisplay}"/>
					</coding>
				</code>
		<text>
			<status value="additional"/>
			<div xmlns="http://www.w3.org/1999/xhtml">
		    <p class="MsoNormal"></p><p class="MsoNormal"></p>
			</div>
		</text>
		
    	    
		
</section>
			    
    	    

			    
		               
<section>
			<title value="3.       FECHA DE CADUCIDAD"/>
				<code>
					<coding>
						<system value="http://spor.ema.europa.eu/v1/example-sections"/>
						<code value="${document[n].section[n].subsection[n].typeCode}"/>
						<display value="${document[n].section[n].subsection[n].typeDisplay}"/>
					</coding>
				</code>
		<text>
			<status value="additional"/>
			<div xmlns="http://www.w3.org/1999/xhtml">
		    <p class="MsoHeader"></p><p class="MsoNormal"><span lang="ES" style="font-size:11.0pt;color:black">CAD</span></p><p class="MsoNormal"></p><p class="MsoNormal"></p>
			</div>
		</text>
		
    	    
		
</section>
			    
    	    

			    
		               
<section>
			<title value="4.       NÚMERO DE LOTE"/>
				<code>
					<coding>
						<system value="http://spor.ema.europa.eu/v1/example-sections"/>
						<code value="${document[n].section[n].subsection[n].typeCode}"/>
						<display value="${document[n].section[n].subsection[n].typeDisplay}"/>
					</coding>
				</code>
		<text>
			<status value="additional"/>
			<div xmlns="http://www.w3.org/1999/xhtml">
		    <p class="MsoNormal" style="margin-left:28.35pt;text-indent:-28.35pt"></p><p class="MsoNormal"><span lang="ES" style="font-size:11.0pt;color:black">Lote</span></p><p class="MsoNormal" style="margin-left:28.35pt;text-indent:-28.35pt"></p><p class="MsoNormal" style="margin-left:28.35pt;text-indent:-28.35pt"></p>
			</div>
		</text>
		
    	    
		
</section>
			    
    	    

			    
		               
<section>
			<title value="5.       CONTENIDO EN PESO, EN VOLUMEN O EN UNIDADES"/>
				<code>
					<coding>
						<system value="http://spor.ema.europa.eu/v1/example-sections"/>
						<code value="${document[n].section[n].subsection[n].typeCode}"/>
						<display value="${document[n].section[n].subsection[n].typeDisplay}"/>
					</coding>
				</code>
		<text>
			<status value="additional"/>
			<div xmlns="http://www.w3.org/1999/xhtml">
		    <p class="MsoNormal"></p><p class="MsoNormal"><span lang="ES" style="font-size:11.0pt;color:black; background:#BFBFBF">75 UI</span></p><p class="MsoNormal"></p><p class="MsoNormal"></p>
			</div>
		</text>
		
    	    
		
</section>
			    
    	    

			    
		               
<section>
			<title value="6.       OTROS"/>
				<code>
					<coding>
						<system value="http://spor.ema.europa.eu/v1/example-sections"/>
						<code value="${document[n].section[n].subsection[n].typeCode}"/>
						<display value="${document[n].section[n].subsection[n].typeDisplay}"/>
					</coding>
				</code>
		<text>
			<status value="additional"/>
			<div xmlns="http://www.w3.org/1999/xhtml">
		    <p class="MsoNormal"></p><p class="MsoNormal"></p><span lang="ES" style='font-size:11.0pt;font-family:"Times New Roman",serif; color:black'><br clear="all" style="page-break-before:always"/> </span><br clear="all" style="page-break-before:always"/>
			</div>
		</text>
		
    	    
		
</section>
			    
    	    
		
</section>
			    
    	    
				
			    
						
		               
<section>
			<title value="INFORMACIÓN MÍNIMA QUE DEBE INCLUIRSE EN PEQUEÑOS ACONDICIONAMIENTOS PRIMARIOS"/>
				<code>
					<coding>
						<system value="http://spor.ema.europa.eu/v1/example-sections"/>
						<code value="${document[n].section[n].subsection[n].typeCode}"/>
						<display value="${document[n].section[n].subsection[n].typeDisplay}"/>
					</coding>
				</code>
		<text>
			<status value="additional"/>
			<div xmlns="http://www.w3.org/1999/xhtml">
		    <div style="border:solid windowtext 1.0pt;padding:2.0pt 4.0pt 1.0pt 4.0pt"> <p class="MsoNormal" style="border:none;padding:0in"></p> <p class="MsoNormal" style="border:none;padding:0in"><b><span lang="ES" style="font-size:11.0pt;color:black">GONAL‑f 75 UI, ETIQUETA DEL VIAL</span></b></p> </div><p class="MsoNormal"></p><p class="MsoNormal"></p>
			</div>
		</text>
		
    	    

			    
		               
<section>
			<title value="1.       NOMBRE DEL MEDICAMENTO Y VÍA(S) DE ADMINISTRACIÓN"/>
				<code>
					<coding>
						<system value="http://spor.ema.europa.eu/v1/example-sections"/>
						<code value="${document[n].section[n].subsection[n].typeCode}"/>
						<display value="${document[n].section[n].subsection[n].typeDisplay}"/>
					</coding>
				</code>
		<text>
			<status value="additional"/>
			<div xmlns="http://www.w3.org/1999/xhtml">
		    <p class="MsoNormal"></p><p class="MsoNormal"><span lang="ES" style="font-size:11.0pt;color:black">GONAL‑f 75 UI polvo para solución inyectable</span></p><p class="MsoNormal"><span lang="ES" style="font-size:11.0pt;color:black">folitropina alfa</span></p><p class="MsoNormal"><span lang="ES" style="font-size:11.0pt;color:black">SC</span></p><p class="MsoNormal"></p><p class="MsoNormal"></p>
			</div>
		</text>
		
    	    
		
</section>
			    
    	    

			    
		               
<section>
			<title value="2.       FORMA DE ADMINISTRACIÓN"/>
				<code>
					<coding>
						<system value="http://spor.ema.europa.eu/v1/example-sections"/>
						<code value="${document[n].section[n].subsection[n].typeCode}"/>
						<display value="${document[n].section[n].subsection[n].typeDisplay}"/>
					</coding>
				</code>
		<text>
			<status value="additional"/>
			<div xmlns="http://www.w3.org/1999/xhtml">
		    <p class="MsoNormal"></p><p class="MsoNormal"></p>
			</div>
		</text>
		
    	    
		
</section>
			    
    	    

			    
		               
<section>
			<title value="3.       FECHA DE CADUCIDAD"/>
				<code>
					<coding>
						<system value="http://spor.ema.europa.eu/v1/example-sections"/>
						<code value="${document[n].section[n].subsection[n].typeCode}"/>
						<display value="${document[n].section[n].subsection[n].typeDisplay}"/>
					</coding>
				</code>
		<text>
			<status value="additional"/>
			<div xmlns="http://www.w3.org/1999/xhtml">
		    <p class="MsoHeader"></p><p class="MsoNormal"><span lang="ES" style="font-size:11.0pt;color:black">CAD</span></p><p class="MsoNormal"></p><p class="MsoNormal"></p>
			</div>
		</text>
		
    	    
		
</section>
			    
    	    

			    
		               
<section>
			<title value="4.       NÚMERO DE LOTE"/>
				<code>
					<coding>
						<system value="http://spor.ema.europa.eu/v1/example-sections"/>
						<code value="${document[n].section[n].subsection[n].typeCode}"/>
						<display value="${document[n].section[n].subsection[n].typeDisplay}"/>
					</coding>
				</code>
		<text>
			<status value="additional"/>
			<div xmlns="http://www.w3.org/1999/xhtml">
		    <p class="MsoNormal" style="margin-left:28.35pt;text-indent:-28.35pt"></p><p class="MsoNormal"><span lang="ES" style="font-size:11.0pt;color:black">Lote</span></p><p class="MsoNormal" style="margin-left:28.35pt;text-indent:-28.35pt"></p><p class="MsoNormal" style="margin-left:28.35pt;text-indent:-28.35pt"></p>
			</div>
		</text>
		
    	    
		
</section>
			    
    	    

			    
		               
<section>
			<title value="5.       CONTENIDO EN PESO, EN VOLUMEN O EN UNIDADES"/>
				<code>
					<coding>
						<system value="http://spor.ema.europa.eu/v1/example-sections"/>
						<code value="${document[n].section[n].subsection[n].typeCode}"/>
						<display value="${document[n].section[n].subsection[n].typeDisplay}"/>
					</coding>
				</code>
		<text>
			<status value="additional"/>
			<div xmlns="http://www.w3.org/1999/xhtml">
		    <p class="MsoNormal"></p><p class="MsoNormal"><span lang="ES" style="font-size:11.0pt;color:black; background:#BFBFBF">75 UI</span></p><p class="MsoNormal"></p><p class="MsoNormal"></p>
			</div>
		</text>
		
    	    
		
</section>
			    
    	    

			    
		               
<section>
			<title value="6.       OTROS"/>
				<code>
					<coding>
						<system value="http://spor.ema.europa.eu/v1/example-sections"/>
						<code value="${document[n].section[n].subsection[n].typeCode}"/>
						<display value="${document[n].section[n].subsection[n].typeDisplay}"/>
					</coding>
				</code>
		<text>
			<status value="additional"/>
			<div xmlns="http://www.w3.org/1999/xhtml">
		    <p class="MsoNormal"></p><p class="MsoNormal"></p><span lang="ES" style='font-size:11.0pt;font-family:"Times New Roman",serif; color:black'><br clear="all" style="page-break-before:always"/> </span><br clear="all" style="page-break-before:always"/>
			</div>
		</text>
		
    	    
		
</section>
			    
    	    

			    
		               
<section>
			<title value="1.       NOMBRE DEL MEDICAMENTO Y VÍA(S) DE ADMINISTRACIÓN"/>
				<code>
					<coding>
						<system value="http://spor.ema.europa.eu/v1/example-sections"/>
						<code value="${document[n].section[n].subsection[n].typeCode}"/>
						<display value="${document[n].section[n].subsection[n].typeDisplay}"/>
					</coding>
				</code>
		<text>
			<status value="additional"/>
			<div xmlns="http://www.w3.org/1999/xhtml">
		    <p class="MsoNormal"></p><p class="MsoNormal"><span lang="ES" style="font-size:11.0pt;color:black">GONAL‑f 75 UI polvo para solución inyectable</span></p><p class="MsoNormal"><span lang="ES" style="font-size:11.0pt;color:black">folitropina alfa</span></p><p class="MsoNormal"><span lang="ES" style="font-size:11.0pt;color:black">SC</span></p><p class="MsoNormal"></p><p class="MsoNormal"></p>
			</div>
		</text>
		
    	    
		
</section>
			    
    	    

			    
		               
<section>
			<title value="2.       FORMA DE ADMINISTRACIÓN"/>
				<code>
					<coding>
						<system value="http://spor.ema.europa.eu/v1/example-sections"/>
						<code value="${document[n].section[n].subsection[n].typeCode}"/>
						<display value="${document[n].section[n].subsection[n].typeDisplay}"/>
					</coding>
				</code>
		<text>
			<status value="additional"/>
			<div xmlns="http://www.w3.org/1999/xhtml">
		    <p class="MsoNormal"></p><p class="MsoNormal"></p>
			</div>
		</text>
		
    	    
		
</section>
			    
    	    

			    
		               
<section>
			<title value="3.       FECHA DE CADUCIDAD"/>
				<code>
					<coding>
						<system value="http://spor.ema.europa.eu/v1/example-sections"/>
						<code value="${document[n].section[n].subsection[n].typeCode}"/>
						<display value="${document[n].section[n].subsection[n].typeDisplay}"/>
					</coding>
				</code>
		<text>
			<status value="additional"/>
			<div xmlns="http://www.w3.org/1999/xhtml">
		    <p class="MsoHeader"></p><p class="MsoNormal"><span lang="ES" style="font-size:11.0pt;color:black">CAD</span></p><p class="MsoNormal"></p><p class="MsoNormal"></p>
			</div>
		</text>
		
    	    
		
</section>
			    
    	    

			    
		               
<section>
			<title value="4.       NÚMERO DE LOTE"/>
				<code>
					<coding>
						<system value="http://spor.ema.europa.eu/v1/example-sections"/>
						<code value="${document[n].section[n].subsection[n].typeCode}"/>
						<display value="${document[n].section[n].subsection[n].typeDisplay}"/>
					</coding>
				</code>
		<text>
			<status value="additional"/>
			<div xmlns="http://www.w3.org/1999/xhtml">
		    <p class="MsoNormal" style="margin-left:28.35pt;text-indent:-28.35pt"></p><p class="MsoNormal"><span lang="ES" style="font-size:11.0pt;color:black">Lote</span></p><p class="MsoNormal" style="margin-left:28.35pt;text-indent:-28.35pt"></p><p class="MsoNormal" style="margin-left:28.35pt;text-indent:-28.35pt"></p>
			</div>
		</text>
		
    	    
		
</section>
			    
    	    

			    
		               
<section>
			<title value="5.       CONTENIDO EN PESO, EN VOLUMEN O EN UNIDADES"/>
				<code>
					<coding>
						<system value="http://spor.ema.europa.eu/v1/example-sections"/>
						<code value="${document[n].section[n].subsection[n].typeCode}"/>
						<display value="${document[n].section[n].subsection[n].typeDisplay}"/>
					</coding>
				</code>
		<text>
			<status value="additional"/>
			<div xmlns="http://www.w3.org/1999/xhtml">
		    <p class="MsoNormal"></p><p class="MsoNormal"><span lang="ES" style="font-size:11.0pt;color:black; background:#BFBFBF">75 UI</span></p><p class="MsoNormal"></p><p class="MsoNormal"></p>
			</div>
		</text>
		
    	    
		
</section>
			    
    	    

			    
		               
<section>
			<title value="6.       OTROS"/>
				<code>
					<coding>
						<system value="http://spor.ema.europa.eu/v1/example-sections"/>
						<code value="${document[n].section[n].subsection[n].typeCode}"/>
						<display value="${document[n].section[n].subsection[n].typeDisplay}"/>
					</coding>
				</code>
		<text>
			<status value="additional"/>
			<div xmlns="http://www.w3.org/1999/xhtml">
		    <p class="MsoNormal"></p><p class="MsoNormal"></p><span lang="ES" style='font-size:11.0pt;font-family:"Times New Roman",serif; color:black'><br clear="all" style="page-break-before:always"/> </span><br clear="all" style="page-break-before:always"/>
			</div>
		</text>
		
    	    
		
</section>
			    
    	    
		
</section>
			    
    	    
		
	
		
		
    	    
				
			    
						
		               
<section>
			<title value="INFORMACIÓN QUE DEBE FIGURAR EN EL EMBALAJE EXTERIOR"/>
				<code>
					<coding>
						<system value="http://spor.ema.europa.eu/v1/example-sections"/>
						<code value="${document[n].section[n].subsection[n].typeCode}"/>
						<display value="${document[n].section[n].subsection[n].typeDisplay}"/>
					</coding>
				</code>
		<text>
			<status value="additional"/>
			<div xmlns="http://www.w3.org/1999/xhtml">
		    <div style="border:solid windowtext 1.0pt;padding:1.0pt 4.0pt 1.0pt 4.0pt"> <p class="MsoNormal" style="margin-left:28.35pt;text-indent:-28.35pt;border:none; padding:0in"></p> <p class="MsoNormal" style="margin-left:28.35pt;text-indent:-28.35pt;border:none; padding:0in"><b><span lang="ES" style="font-size:11.0pt">GONAL‑f 1050 UI/1,75 ML,<span style="color:black">CAJA DE 1 VIAL Y 1 JERINGA PRECARGADA</span></span></b></p> </div><p class="MsoNormal"></p><p class="MsoNormal"></p>
			</div>
		</text>
		
    	    

			    
		               
<section>
			<title value="1.       NOMBRE DEL MEDICAMENTO"/>
				<code>
					<coding>
						<system value="http://spor.ema.europa.eu/v1/example-sections"/>
						<code value="${document[n].section[n].subsection[n].typeCode}"/>
						<display value="${document[n].section[n].subsection[n].typeDisplay}"/>
					</coding>
				</code>
		<text>
			<status value="additional"/>
			<div xmlns="http://www.w3.org/1999/xhtml">
		    <p class="MsoNormal"></p><p class="MsoNormal"><span lang="ES" style="font-size:11.0pt;color:black">GONAL‑f 1050 UI/1,75 ml </span><span lang="ES" style="font-size:11.0pt; color:black">polvo y disolvente para solución inyectable</span></p><p class="MsoNormal"><span lang="PT" style="font-size:11.0pt;color:black">folitropina alfa</span></p><p class="MsoNormal"></p><p class="MsoNormal"></p>
			</div>
		</text>
		
    	    
		
</section>
			    
    	    

			    
		               
<section>
			<title value="2.       PRINCIPIO(S) ACTIVO(S)"/>
				<code>
					<coding>
						<system value="http://spor.ema.europa.eu/v1/example-sections"/>
						<code value="${document[n].section[n].subsection[n].typeCode}"/>
						<display value="${document[n].section[n].subsection[n].typeDisplay}"/>
					</coding>
				</code>
		<text>
			<status value="additional"/>
			<div xmlns="http://www.w3.org/1999/xhtml">
		    <p class="MsoNormal"></p><p class="MsoNormal"><span lang="PT" style="font-size:11.0pt;color:black">Cada vial multidosis contiene 87 microgramos de folitropina alfa, equivalente a 1.200 UI. Cada ml de la solución reconstituida contiene 600 UI.</span></p><p class="MsoNormal"></p><p class="MsoNormal"></p>
			</div>
		</text>
		
    	    
		
</section>
			    
    	    

			    
		               
<section>
			<title value="3.       LISTA DE EXCIPIENTES"/>
				<code>
					<coding>
						<system value="http://spor.ema.europa.eu/v1/example-sections"/>
						<code value="${document[n].section[n].subsection[n].typeCode}"/>
						<display value="${document[n].section[n].subsection[n].typeDisplay}"/>
					</coding>
				</code>
		<text>
			<status value="additional"/>
			<div xmlns="http://www.w3.org/1999/xhtml">
		    <p class="MsoNormal"></p><p class="MsoNormal"><span lang="PT" style="font-size:11.0pt;color:black">Excipientes: sacarosa, dihidrogenofosfato de sodio monohidrato, hidrogenofosfato de disodio dihidrato, ácido fosfórico concentrado e hidróxido de sodio.</span></p><p class="MsoNormal"><span lang="ES" style="font-size:11.0pt;color:black">Disolvente para solución inyectable: agua para preparaciones inyectables, alcohol bencílico al 0,9 %.</span></p><p class="MsoNormal"></p><p class="MsoNormal"></p>
			</div>
		</text>
		
    	    
		
</section>
			    
    	    

			    
		               
<section>
			<title value="4.       FORMA FARMACÉUTICA Y CONTENIDO DEL ENVASE"/>
				<code>
					<coding>
						<system value="http://spor.ema.europa.eu/v1/example-sections"/>
						<code value="${document[n].section[n].subsection[n].typeCode}"/>
						<display value="${document[n].section[n].subsection[n].typeDisplay}"/>
					</coding>
				</code>
		<text>
			<status value="additional"/>
			<div xmlns="http://www.w3.org/1999/xhtml">
		    <p class="MsoNormal"></p><p class="MsoNormal"><span lang="ES" style="font-size:11.0pt;color:black">1 vial de polvo para solución inyectable.</span></p><p class="MsoNormal"><span lang="ES" style="font-size:11.0pt;color:black">1 jeringa precargada de 2 ml de disolvente.</span></p><p class="MsoNormal"><span lang="ES" style="font-size:11.0pt;color:black">15 jeringas desechables para la administración, graduadas en unidades de FSH.</span></p><p class="MsoNormal"></p><p class="MsoNormal"></p>
			</div>
		</text>
		
    	    
		
</section>
			    
    	    

			    
		               
<section>
			<title value="5.       FORMA Y VÍA(S) DE ADMINISTRACIÓN"/>
				<code>
					<coding>
						<system value="http://spor.ema.europa.eu/v1/example-sections"/>
						<code value="${document[n].section[n].subsection[n].typeCode}"/>
						<display value="${document[n].section[n].subsection[n].typeDisplay}"/>
					</coding>
				</code>
		<text>
			<status value="additional"/>
			<div xmlns="http://www.w3.org/1999/xhtml">
		    <p class="MsoNormal"></p><p class="MsoNormal"><span lang="ES" style="font-size:11.0pt;color:black">Sólo para inyecciones múltiples.</span></p><p class="MsoNormal"><span lang="ES" style="font-size:11.0pt;color:black">Leer el prospecto antes de utilizar este medicamento.</span></p><p class="MsoNormal"><span lang="ES" style="font-size:11.0pt;color:black">Vía subcutánea.</span></p><p class="MsoNormal"></p><p class="MsoNormal"></p>
			</div>
		</text>
		
    	    
		
</section>
			    
    	    

			    
		               
<section>
			<title value="6.       ADVERTENCIA ESPECIAL DE QUE EL MEDICAMENTO DEBE MANTENERSE FUERA DE LA VISTA Y DEL ALCANCE DE LOS NIÑOS"/>
				<code>
					<coding>
						<system value="http://spor.ema.europa.eu/v1/example-sections"/>
						<code value="${document[n].section[n].subsection[n].typeCode}"/>
						<display value="${document[n].section[n].subsection[n].typeDisplay}"/>
					</coding>
				</code>
		<text>
			<status value="additional"/>
			<div xmlns="http://www.w3.org/1999/xhtml">
		    <p class="MsoNormal"></p><p class="MsoNormal"><span lang="ES" style="font-size:11.0pt;color:black">Mantener fuera de la vista y del alcance de los niños.</span></p><p class="MsoNormal"></p><p class="MsoNormal"></p>
			</div>
		</text>
		
    	    
		
</section>
			    
    	    

			    
		               
<section>
			<title value="7.       OTRA(S) ADVERTENCIA(S) ESPECIAL(ES), SI ES NECESARIO"/>
				<code>
					<coding>
						<system value="http://spor.ema.europa.eu/v1/example-sections"/>
						<code value="${document[n].section[n].subsection[n].typeCode}"/>
						<display value="${document[n].section[n].subsection[n].typeDisplay}"/>
					</coding>
				</code>
		<text>
			<status value="additional"/>
			<div xmlns="http://www.w3.org/1999/xhtml">
		    <p class="MsoNormal" style="page-break-after:avoid"></p><p class="MsoNormal"><span lang="ES" style="font-size:11.0pt;color:black">La jeringa precargada de disolvente sólo debe utilizarse para la reconstitución.</span></p><p class="MsoNormal"><span lang="ES" style="font-size:11.0pt;color:black">El vial reconstituido debe ser utilizado por un solo paciente.</span></p><p class="MsoNormal"></p><p class="MsoNormal"></p>
			</div>
		</text>
		
    	    
		
</section>
			    
    	    

			    
		               
<section>
			<title value="8.       FECHA DE CADUCIDAD"/>
				<code>
					<coding>
						<system value="http://spor.ema.europa.eu/v1/example-sections"/>
						<code value="${document[n].section[n].subsection[n].typeCode}"/>
						<display value="${document[n].section[n].subsection[n].typeDisplay}"/>
					</coding>
				</code>
		<text>
			<status value="additional"/>
			<div xmlns="http://www.w3.org/1999/xhtml">
		    <p class="MsoNormal" style="page-break-after:avoid"></p><p class="MsoNormal"><span lang="ES" style="font-size:11.0pt;color:black">CAD</span></p><p class="MsoNormal"></p><p class="MsoNormal"></p>
			</div>
		</text>
		
    	    
		
</section>
			    
    	    

			    
		               
<section>
			<title value="9.       CONDICIONES ESPECIALES DE CONSERVACIÓN"/>
				<code>
					<coding>
						<system value="http://spor.ema.europa.eu/v1/example-sections"/>
						<code value="${document[n].section[n].subsection[n].typeCode}"/>
						<display value="${document[n].section[n].subsection[n].typeDisplay}"/>
					</coding>
				</code>
		<text>
			<status value="additional"/>
			<div xmlns="http://www.w3.org/1999/xhtml">
		    <p class="MsoNormal" style="page-break-after:avoid"></p><p class="MsoNormal"><span lang="ES" style="font-size:11.0pt;color:black">Antes de la reconstitución, no conservar a temperatura superior a 25ºC. Conservar en el embalaje original para protegerlo de la luz.</span></p><p class="MsoNormal"><span lang="ES" style="font-size:11.0pt;color:black">Tras la reconstitución, no conservar a temperatura superior a 25ºC. No congelar. Conservar en el envase original.</span></p><p class="MsoNormal"></p><p class="MsoNormal"></p>
			</div>
		</text>
		
    	    
		
</section>
			    
    	    

			    
		               
<section>
			<title value="10.     PRECAUCIONES ESPECIALES DE ELIMINACIÓN DEL MEDICAMENTO NO UTILIZADO Y DE LOS MATERIALES DERIVADOS DE SU USO (CUANDO CORRESPONDA)"/>
				<code>
					<coding>
						<system value="http://spor.ema.europa.eu/v1/example-sections"/>
						<code value="${document[n].section[n].subsection[n].typeCode}"/>
						<display value="${document[n].section[n].subsection[n].typeDisplay}"/>
					</coding>
				</code>
		<text>
			<status value="additional"/>
			<div xmlns="http://www.w3.org/1999/xhtml">
		    <p class="MsoNormal"></p><p class="MsoNormal"><span lang="ES" style="font-size:11.0pt;color:black">Desechar la solución no utilizada después de 28 días.</span></p><p class="MsoNormal"></p><p class="MsoNormal"></p>
			</div>
		</text>
		
    	    
		
</section>
			    
    	    

			    
		               
<section>
			<title value="11.     NOMBRE Y DIRECCIÓN DEL TITULAR DE LA AUTORIZACIÓN DE COMERCIALIZACIÓN"/>
				<code>
					<coding>
						<system value="http://spor.ema.europa.eu/v1/example-sections"/>
						<code value="${document[n].section[n].subsection[n].typeCode}"/>
						<display value="${document[n].section[n].subsection[n].typeDisplay}"/>
					</coding>
				</code>
		<text>
			<status value="additional"/>
			<div xmlns="http://www.w3.org/1999/xhtml">
		    <p class="MsoNormal"></p><p class="Listenabsatz1" style="margin:0in;margin-bottom:.0001pt;line-height: normal;page-break-after:avoid"><span lang="ES" style="font-size:11.0pt">Merck Europe B.V.</span></p><p class="Listenabsatz1" style="margin:0in;margin-bottom:.0001pt;line-height: normal;page-break-after:avoid"><span lang="ES" style="font-size:11.0pt">Gustav Mahlerplein 102</span></p><p class="Listenabsatz1" style="margin:0in;margin-bottom:.0001pt;line-height: normal;page-break-after:avoid"><span lang="ES" style="font-size:11.0pt">1082 MA Amsterdam</span></p><p class="MsoNormal"><span lang="ES" style="font-size:11.0pt">Países Bajos</span></p><p class="MsoNormal"></p><p class="MsoNormal"></p>
			</div>
		</text>
		
    	    
		
</section>
			    
    	    

			    
		               
<section>
			<title value="12.     NÚMERO(S) DE AUTORIZACIÓN DE COMERCIALIZACIÓN"/>
				<code>
					<coding>
						<system value="http://spor.ema.europa.eu/v1/example-sections"/>
						<code value="${document[n].section[n].subsection[n].typeCode}"/>
						<display value="${document[n].section[n].subsection[n].typeDisplay}"/>
					</coding>
				</code>
		<text>
			<status value="additional"/>
			<div xmlns="http://www.w3.org/1999/xhtml">
		    <p class="MsoNormal"></p><p class="MsoNormal"><span lang="ES" style="font-size:11.0pt;color:black">EU/1/95/001/021   <span style="background:#D9D9D9">1 vial de polvo para solución inyectable</span></span></p><p class="MsoNormal"><span lang="ES" style="font-size:11.0pt;color:black"> <span style="background:#D9D9D9">1 jeringa precargada de disolvente</span></span></p><p class="MsoNormal"><span lang="ES" style="font-size:11.0pt;color:black"> <span style="background:#D9D9D9">15 jeringas desechables</span></span></p><p class="MsoNormal"></p><p class="MsoNormal"></p>
			</div>
		</text>
		
    	    
		
</section>
			    
    	    

			    
		               
<section>
			<title value="13.     NÚMERO DE LOTE"/>
				<code>
					<coding>
						<system value="http://spor.ema.europa.eu/v1/example-sections"/>
						<code value="${document[n].section[n].subsection[n].typeCode}"/>
						<display value="${document[n].section[n].subsection[n].typeDisplay}"/>
					</coding>
				</code>
		<text>
			<status value="additional"/>
			<div xmlns="http://www.w3.org/1999/xhtml">
		    <p class="MsoNormal"></p><p class="MsoNormal"><span lang="ES" style="font-size:11.0pt;color:black">Lote</span></p><p class="MsoNormal"><span lang="ES" style="font-size:11.0pt;color:black">Lote de disolvente</span></p><p class="MsoNormal"></p><p class="MsoNormal"></p>
			</div>
		</text>
		
    	    
		
</section>
			    
    	    

			    
		               
<section>
			<title value="14.     CONDICIONES GENERALES DE DISPENSACIÓN"/>
				<code>
					<coding>
						<system value="http://spor.ema.europa.eu/v1/example-sections"/>
						<code value="${document[n].section[n].subsection[n].typeCode}"/>
						<display value="${document[n].section[n].subsection[n].typeDisplay}"/>
					</coding>
				</code>
		<text>
			<status value="additional"/>
			<div xmlns="http://www.w3.org/1999/xhtml">
		    <p class="MsoNormal" style="margin-left:.5in;text-indent:-.5in"></p><p class="MsoNormal"></p>
			</div>
		</text>
		
    	    
		
</section>
			    
    	    

			    
		               
<section>
			<title value="15.     INSTRUCCIONES DE USO"/>
				<code>
					<coding>
						<system value="http://spor.ema.europa.eu/v1/example-sections"/>
						<code value="${document[n].section[n].subsection[n].typeCode}"/>
						<display value="${document[n].section[n].subsection[n].typeDisplay}"/>
					</coding>
				</code>
		<text>
			<status value="additional"/>
			<div xmlns="http://www.w3.org/1999/xhtml">
		    <p class="MsoNormal"></p><p class="MsoNormal"></p>
			</div>
		</text>
		
    	    
		
</section>
			    
    	    

			    
		               
<section>
			<title value="16.     INFORMACIÓN EN BRAILLE"/>
				<code>
					<coding>
						<system value="http://spor.ema.europa.eu/v1/example-sections"/>
						<code value="${document[n].section[n].subsection[n].typeCode}"/>
						<display value="${document[n].section[n].subsection[n].typeDisplay}"/>
					</coding>
				</code>
		<text>
			<status value="additional"/>
			<div xmlns="http://www.w3.org/1999/xhtml">
		    <p class="MsoNormal"></p><p class="MsoNormal"><span lang="ES" style="font-size:11.0pt;color:black">gonal‑f 1050 ui</span></p><p class="MsoNormal"></p><p align="left" class="MsoBodyText" style="text-align:left;page-break-after:auto"></p>
			</div>
		</text>
		
    	    
		
</section>
			    
    	    

			    
		               
<section>
			<title value="17.     IDENTIFICADOR ÚNICO - CÓDIGO DE BARRAS 2D"/>
				<code>
					<coding>
						<system value="http://spor.ema.europa.eu/v1/example-sections"/>
						<code value="${document[n].section[n].subsection[n].typeCode}"/>
						<display value="${document[n].section[n].subsection[n].typeDisplay}"/>
					</coding>
				</code>
		<text>
			<status value="additional"/>
			<div xmlns="http://www.w3.org/1999/xhtml">
		    <p class="MsoNormal" style="page-break-after:avoid"></p><p class="MsoNormal"><span lang="ES" style="font-size:11.0pt;color:black; background:#D9D9D9">Incluido el código de barras 2D que lleva el identificador único.</span></p><p class="MsoNormal"></p><p class="MsoNormal"></p>
			</div>
		</text>
		
    	    
		
</section>
			    
    	    

			    
		               
<section>
			<title value="18.     iDENTIFICADOR ÚNICO - INFORMACIÓN EN CARACTERES VISUALES"/>
				<code>
					<coding>
						<system value="http://spor.ema.europa.eu/v1/example-sections"/>
						<code value="${document[n].section[n].subsection[n].typeCode}"/>
						<display value="${document[n].section[n].subsection[n].typeDisplay}"/>
					</coding>
				</code>
		<text>
			<status value="additional"/>
			<div xmlns="http://www.w3.org/1999/xhtml">
		    <p class="MsoNormal" style="page-break-after:avoid"></p><p class="MsoNormal"><span lang="ES" style="font-size:11.0pt">PC</span></p><p class="MsoNormal"><span lang="ES" style="font-size:11.0pt">SN</span></p><p class="MsoNormal"><span lang="ES" style="font-size:11.0pt">NN</span></p><p class="MsoNormal"></p><span lang="ES" style='font-size:11.0pt;font-family:"Times New Roman",serif; color:black'><br clear="all" style="page-break-before:always"/> </span><br clear="all" style="page-break-before:always"/>
			</div>
		</text>
		
    	    
		
</section>
			    
    	    
		
</section>
			    
    	    
				
			    
						
		               
<section>
			<title value="INFORMACIÓN MÍNIMA QUE DEBE INCLUIRSE EN PEQUEÑOS ACONDICIONAMIENTOS PRIMARIOS"/>
				<code>
					<coding>
						<system value="http://spor.ema.europa.eu/v1/example-sections"/>
						<code value="${document[n].section[n].subsection[n].typeCode}"/>
						<display value="${document[n].section[n].subsection[n].typeDisplay}"/>
					</coding>
				</code>
		<text>
			<status value="additional"/>
			<div xmlns="http://www.w3.org/1999/xhtml">
		    <div style="border:solid windowtext 1.0pt;padding:1.0pt 4.0pt 1.0pt 4.0pt"> <p class="MsoNormal" style="border:none;padding:0in"></p> <p class="MsoNormal" style="border:none;padding:0in"><b><span lang="ES" style="font-size:11.0pt;color:black">ETIQUETA DEL VIAL DE GONAL‑f 1050 UI/1,75 ML</span></b></p> </div><p class="MsoNormal"></p><p class="MsoNormal"></p>
			</div>
		</text>
		
    	    

			    
		               
<section>
			<title value="1.       NOMBRE DEL MEDICAMENTO Y VÍA(S) DE ADMINISTRACIÓN"/>
				<code>
					<coding>
						<system value="http://spor.ema.europa.eu/v1/example-sections"/>
						<code value="${document[n].section[n].subsection[n].typeCode}"/>
						<display value="${document[n].section[n].subsection[n].typeDisplay}"/>
					</coding>
				</code>
		<text>
			<status value="additional"/>
			<div xmlns="http://www.w3.org/1999/xhtml">
		    <p class="MsoNormal"></p><p class="MsoNormal"><span lang="ES" style="font-size:11.0pt;color:black">GONAL‑f 1050 UI/1,75 ml polvo para solución inyectable</span></p><p class="MsoNormal"><span lang="ES" style="font-size:11.0pt;color:black">folitropina alfa</span></p><p class="MsoNormal"><span lang="ES" style="font-size:11.0pt;color:black">SC</span></p><p class="MsoNormal"></p><p class="MsoNormal"></p>
			</div>
		</text>
		
    	    
		
</section>
			    
    	    

			    
		               
<section>
			<title value="2.       FORMA DE ADMINISTRACIÓN"/>
				<code>
					<coding>
						<system value="http://spor.ema.europa.eu/v1/example-sections"/>
						<code value="${document[n].section[n].subsection[n].typeCode}"/>
						<display value="${document[n].section[n].subsection[n].typeDisplay}"/>
					</coding>
				</code>
		<text>
			<status value="additional"/>
			<div xmlns="http://www.w3.org/1999/xhtml">
		    <p class="MsoNormal"></p><p class="MsoNormal"></p>
			</div>
		</text>
		
    	    
		
</section>
			    
    	    

			    
		               
<section>
			<title value="3.       FECHA DE CADUCIDAD"/>
				<code>
					<coding>
						<system value="http://spor.ema.europa.eu/v1/example-sections"/>
						<code value="${document[n].section[n].subsection[n].typeCode}"/>
						<display value="${document[n].section[n].subsection[n].typeDisplay}"/>
					</coding>
				</code>
		<text>
			<status value="additional"/>
			<div xmlns="http://www.w3.org/1999/xhtml">
		    <p class="MsoHeader"></p><p class="MsoNormal"><span lang="ES" style="font-size:11.0pt;color:black">CAD</span></p><p class="MsoNormal"></p><p class="MsoNormal"></p><div style="border:solid windowtext 1.0pt;padding:1.0pt 4.0pt 1.0pt 4.0pt"> <p class="MsoNormal" style="margin-left:28.35pt;text-indent:-28.35pt;border:none; padding:0in"><b><span lang="ES" style="font-size:11.0pt;color:black">4.       FECHA DE RECONSTITUCIÓN</span></b></p> </div><p class="MsoNormal"></p><p class="MsoNormal"><span lang="ES" style="font-size:11.0pt;color:black">Fecha:</span></p><p class="MsoNormal"></p><p class="MsoNormal"></p>
			</div>
		</text>
		
    	    
		
</section>
			    
    	    

			    
		               
<section>
			<title value="5.       NÚMERO DE LOTE"/>
				<code>
					<coding>
						<system value="http://spor.ema.europa.eu/v1/example-sections"/>
						<code value="${document[n].section[n].subsection[n].typeCode}"/>
						<display value="${document[n].section[n].subsection[n].typeDisplay}"/>
					</coding>
				</code>
		<text>
			<status value="additional"/>
			<div xmlns="http://www.w3.org/1999/xhtml">
		    <p class="MsoNormal" style="margin-left:28.35pt;text-indent:-28.35pt"></p><p class="MsoNormal"><span lang="ES" style="font-size:11.0pt;color:black">Lote</span></p><p class="MsoNormal" style="margin-left:28.35pt;text-indent:-28.35pt"></p><p class="MsoNormal" style="margin-left:28.35pt;text-indent:-28.35pt"></p>
			</div>
		</text>
		
    	    
		
</section>
			    
    	    

			    
		               
<section>
			<title value="6.       CONTENIDO EN PESO, EN VOLUMEN O EN UNIDADES"/>
				<code>
					<coding>
						<system value="http://spor.ema.europa.eu/v1/example-sections"/>
						<code value="${document[n].section[n].subsection[n].typeCode}"/>
						<display value="${document[n].section[n].subsection[n].typeDisplay}"/>
					</coding>
				</code>
		<text>
			<status value="additional"/>
			<div xmlns="http://www.w3.org/1999/xhtml">
		    <p class="MsoNormal"></p><p class="MsoNormal"><span lang="ES" style="font-size:11.0pt;color:black">1.200 UI/vial</span></p><p class="MsoNormal"></p><p class="MsoNormal"></p><div style="border:solid windowtext 1.0pt;padding:2.0pt 4.0pt 1.0pt 4.0pt"> <p class="MsoNormal" style="margin-left:28.35pt;text-indent:-28.35pt;border:none; padding:0in"><b><span lang="ES" style="font-size:11.0pt;color:black">7.       OTROS</span></b></p> </div><p class="MsoNormal"></p><p class="MsoNormal"></p><span lang="ES" style='font-size:11.0pt;font-family:"Times New Roman",serif; color:black'><br clear="all" style="page-break-before:always"/> </span><br clear="all" style="page-break-before:always"/>
			</div>
		</text>
		
    	    
		
</section>
			    
    	    

			    
		               
<section>
			<title value="1.       NOMBRE DEL MEDICAMENTO Y VÍA(S) DE ADMINISTRACIÓN"/>
				<code>
					<coding>
						<system value="http://spor.ema.europa.eu/v1/example-sections"/>
						<code value="${document[n].section[n].subsection[n].typeCode}"/>
						<display value="${document[n].section[n].subsection[n].typeDisplay}"/>
					</coding>
				</code>
		<text>
			<status value="additional"/>
			<div xmlns="http://www.w3.org/1999/xhtml">
		    <p class="MsoNormal"></p><p class="MsoNormal"><span lang="ES" style="font-size:11.0pt;color:black">GONAL‑f 1050 UI/1,75 ml polvo para solución inyectable</span></p><p class="MsoNormal"><span lang="ES" style="font-size:11.0pt;color:black">folitropina alfa</span></p><p class="MsoNormal"><span lang="ES" style="font-size:11.0pt;color:black">SC</span></p><p class="MsoNormal"></p><p class="MsoNormal"></p>
			</div>
		</text>
		
    	    
		
</section>
			    
    	    

			    
		               
<section>
			<title value="2.       FORMA DE ADMINISTRACIÓN"/>
				<code>
					<coding>
						<system value="http://spor.ema.europa.eu/v1/example-sections"/>
						<code value="${document[n].section[n].subsection[n].typeCode}"/>
						<display value="${document[n].section[n].subsection[n].typeDisplay}"/>
					</coding>
				</code>
		<text>
			<status value="additional"/>
			<div xmlns="http://www.w3.org/1999/xhtml">
		    <p class="MsoNormal"></p><p class="MsoNormal"></p>
			</div>
		</text>
		
    	    
		
</section>
			    
    	    

			    
		               
<section>
			<title value="3.       FECHA DE CADUCIDAD"/>
				<code>
					<coding>
						<system value="http://spor.ema.europa.eu/v1/example-sections"/>
						<code value="${document[n].section[n].subsection[n].typeCode}"/>
						<display value="${document[n].section[n].subsection[n].typeDisplay}"/>
					</coding>
				</code>
		<text>
			<status value="additional"/>
			<div xmlns="http://www.w3.org/1999/xhtml">
		    <p class="MsoHeader"></p><p class="MsoNormal"><span lang="ES" style="font-size:11.0pt;color:black">CAD</span></p><p class="MsoNormal"></p><p class="MsoNormal"></p><div style="border:solid windowtext 1.0pt;padding:1.0pt 4.0pt 1.0pt 4.0pt"> <p class="MsoNormal" style="margin-left:28.35pt;text-indent:-28.35pt;border:none; padding:0in"><b><span lang="ES" style="font-size:11.0pt;color:black">4.       FECHA DE RECONSTITUCIÓN</span></b></p> </div><p class="MsoNormal"></p><p class="MsoNormal"><span lang="ES" style="font-size:11.0pt;color:black">Fecha:</span></p><p class="MsoNormal"></p><p class="MsoNormal"></p>
			</div>
		</text>
		
    	    
		
</section>
			    
    	    

			    
		               
<section>
			<title value="5.       NÚMERO DE LOTE"/>
				<code>
					<coding>
						<system value="http://spor.ema.europa.eu/v1/example-sections"/>
						<code value="${document[n].section[n].subsection[n].typeCode}"/>
						<display value="${document[n].section[n].subsection[n].typeDisplay}"/>
					</coding>
				</code>
		<text>
			<status value="additional"/>
			<div xmlns="http://www.w3.org/1999/xhtml">
		    <p class="MsoNormal" style="margin-left:28.35pt;text-indent:-28.35pt"></p><p class="MsoNormal"><span lang="ES" style="font-size:11.0pt;color:black">Lote</span></p><p class="MsoNormal" style="margin-left:28.35pt;text-indent:-28.35pt"></p><p class="MsoNormal" style="margin-left:28.35pt;text-indent:-28.35pt"></p>
			</div>
		</text>
		
    	    
		
</section>
			    
    	    

			    
		               
<section>
			<title value="6.       CONTENIDO EN PESO, EN VOLUMEN O EN UNIDADES"/>
				<code>
					<coding>
						<system value="http://spor.ema.europa.eu/v1/example-sections"/>
						<code value="${document[n].section[n].subsection[n].typeCode}"/>
						<display value="${document[n].section[n].subsection[n].typeDisplay}"/>
					</coding>
				</code>
		<text>
			<status value="additional"/>
			<div xmlns="http://www.w3.org/1999/xhtml">
		    <p class="MsoNormal"></p><p class="MsoNormal"><span lang="ES" style="font-size:11.0pt;color:black">1.200 UI/vial</span></p><p class="MsoNormal"></p><p class="MsoNormal"></p><div style="border:solid windowtext 1.0pt;padding:2.0pt 4.0pt 1.0pt 4.0pt"> <p class="MsoNormal" style="margin-left:28.35pt;text-indent:-28.35pt;border:none; padding:0in"><b><span lang="ES" style="font-size:11.0pt;color:black">7.       OTROS</span></b></p> </div><p class="MsoNormal"></p><p class="MsoNormal"></p><span lang="ES" style='font-size:11.0pt;font-family:"Times New Roman",serif; color:black'><br clear="all" style="page-break-before:always"/> </span><br clear="all" style="page-break-before:always"/>
			</div>
		</text>
		
    	    
		
</section>
			    
    	    

			    
		               
<section>
			<title value="6.       OTROS"/>
				<code>
					<coding>
						<system value="http://spor.ema.europa.eu/v1/example-sections"/>
						<code value="${document[n].section[n].subsection[n].typeCode}"/>
						<display value="${document[n].section[n].subsection[n].typeDisplay}"/>
					</coding>
				</code>
		<text>
			<status value="additional"/>
			<div xmlns="http://www.w3.org/1999/xhtml">
		    <p class="MsoNormal"></p><p class="MsoNormal"></p><span lang="ES" style='font-size:11.0pt;font-family:"Times New Roman",serif; color:black'><br clear="all" style="page-break-before:always"/> </span><br clear="all" style="page-break-before:always"/>
			</div>
		</text>
		
    	    
		
</section>
			    
    	    
		
</section>
			    
    	    
				
			    
						
		               
<section>
			<title value="INFORMACIÓN MÍNIMA QUE DEBE INCLUIRSE EN PEQUEÑOS ACONDICIONAMIENTOS PRIMARIOS"/>
				<code>
					<coding>
						<system value="http://spor.ema.europa.eu/v1/example-sections"/>
						<code value="${document[n].section[n].subsection[n].typeCode}"/>
						<display value="${document[n].section[n].subsection[n].typeDisplay}"/>
					</coding>
				</code>
		<text>
			<status value="additional"/>
			<div xmlns="http://www.w3.org/1999/xhtml">
		    <div style="border:solid windowtext 1.0pt;padding:1.0pt 4.0pt 1.0pt 4.0pt"> <p class="MsoNormal" style="border:none;padding:0in"></p> <p class="MsoNormal" style="border:none;padding:0in"><b><span lang="ES" style="font-size:11.0pt;color:black">ETIQUETA DEL VIAL DE GONAL‑f 1050 UI/1,75 ML</span></b></p> </div><p class="MsoNormal"></p><p class="MsoNormal"></p>
			</div>
		</text>
		
    	    

			    
		               
<section>
			<title value="1.       NOMBRE DEL MEDICAMENTO Y VÍA(S) DE ADMINISTRACIÓN"/>
				<code>
					<coding>
						<system value="http://spor.ema.europa.eu/v1/example-sections"/>
						<code value="${document[n].section[n].subsection[n].typeCode}"/>
						<display value="${document[n].section[n].subsection[n].typeDisplay}"/>
					</coding>
				</code>
		<text>
			<status value="additional"/>
			<div xmlns="http://www.w3.org/1999/xhtml">
		    <p class="MsoNormal"></p><p class="MsoNormal"><span lang="ES" style="font-size:11.0pt;color:black">GONAL‑f 1050 UI/1,75 ml polvo para solución inyectable</span></p><p class="MsoNormal"><span lang="ES" style="font-size:11.0pt;color:black">folitropina alfa</span></p><p class="MsoNormal"><span lang="ES" style="font-size:11.0pt;color:black">SC</span></p><p class="MsoNormal"></p><p class="MsoNormal"></p>
			</div>
		</text>
		
    	    
		
</section>
			    
    	    

			    
		               
<section>
			<title value="2.       FORMA DE ADMINISTRACIÓN"/>
				<code>
					<coding>
						<system value="http://spor.ema.europa.eu/v1/example-sections"/>
						<code value="${document[n].section[n].subsection[n].typeCode}"/>
						<display value="${document[n].section[n].subsection[n].typeDisplay}"/>
					</coding>
				</code>
		<text>
			<status value="additional"/>
			<div xmlns="http://www.w3.org/1999/xhtml">
		    <p class="MsoNormal"></p><p class="MsoNormal"></p>
			</div>
		</text>
		
    	    
		
</section>
			    
    	    

			    
		               
<section>
			<title value="3.       FECHA DE CADUCIDAD"/>
				<code>
					<coding>
						<system value="http://spor.ema.europa.eu/v1/example-sections"/>
						<code value="${document[n].section[n].subsection[n].typeCode}"/>
						<display value="${document[n].section[n].subsection[n].typeDisplay}"/>
					</coding>
				</code>
		<text>
			<status value="additional"/>
			<div xmlns="http://www.w3.org/1999/xhtml">
		    <p class="MsoHeader"></p><p class="MsoNormal"><span lang="ES" style="font-size:11.0pt;color:black">CAD</span></p><p class="MsoNormal"></p><p class="MsoNormal"></p><div style="border:solid windowtext 1.0pt;padding:1.0pt 4.0pt 1.0pt 4.0pt"> <p class="MsoNormal" style="margin-left:28.35pt;text-indent:-28.35pt;border:none; padding:0in"><b><span lang="ES" style="font-size:11.0pt;color:black">4.       FECHA DE RECONSTITUCIÓN</span></b></p> </div><p class="MsoNormal"></p><p class="MsoNormal"><span lang="ES" style="font-size:11.0pt;color:black">Fecha:</span></p><p class="MsoNormal"></p><p class="MsoNormal"></p>
			</div>
		</text>
		
    	    
		
</section>
			    
    	    

			    
		               
<section>
			<title value="5.       NÚMERO DE LOTE"/>
				<code>
					<coding>
						<system value="http://spor.ema.europa.eu/v1/example-sections"/>
						<code value="${document[n].section[n].subsection[n].typeCode}"/>
						<display value="${document[n].section[n].subsection[n].typeDisplay}"/>
					</coding>
				</code>
		<text>
			<status value="additional"/>
			<div xmlns="http://www.w3.org/1999/xhtml">
		    <p class="MsoNormal" style="margin-left:28.35pt;text-indent:-28.35pt"></p><p class="MsoNormal"><span lang="ES" style="font-size:11.0pt;color:black">Lote</span></p><p class="MsoNormal" style="margin-left:28.35pt;text-indent:-28.35pt"></p><p class="MsoNormal" style="margin-left:28.35pt;text-indent:-28.35pt"></p>
			</div>
		</text>
		
    	    
		
</section>
			    
    	    

			    
		               
<section>
			<title value="6.       CONTENIDO EN PESO, EN VOLUMEN O EN UNIDADES"/>
				<code>
					<coding>
						<system value="http://spor.ema.europa.eu/v1/example-sections"/>
						<code value="${document[n].section[n].subsection[n].typeCode}"/>
						<display value="${document[n].section[n].subsection[n].typeDisplay}"/>
					</coding>
				</code>
		<text>
			<status value="additional"/>
			<div xmlns="http://www.w3.org/1999/xhtml">
		    <p class="MsoNormal"></p><p class="MsoNormal"><span lang="ES" style="font-size:11.0pt;color:black">1.200 UI/vial</span></p><p class="MsoNormal"></p><p class="MsoNormal"></p><div style="border:solid windowtext 1.0pt;padding:2.0pt 4.0pt 1.0pt 4.0pt"> <p class="MsoNormal" style="margin-left:28.35pt;text-indent:-28.35pt;border:none; padding:0in"><b><span lang="ES" style="font-size:11.0pt;color:black">7.       OTROS</span></b></p> </div><p class="MsoNormal"></p><p class="MsoNormal"></p><span lang="ES" style='font-size:11.0pt;font-family:"Times New Roman",serif; color:black'><br clear="all" style="page-break-before:always"/> </span><br clear="all" style="page-break-before:always"/>
			</div>
		</text>
		
    	    
		
</section>
			    
    	    

			    
		               
<section>
			<title value="1.       NOMBRE DEL MEDICAMENTO Y VÍA(S) DE ADMINISTRACIÓN"/>
				<code>
					<coding>
						<system value="http://spor.ema.europa.eu/v1/example-sections"/>
						<code value="${document[n].section[n].subsection[n].typeCode}"/>
						<display value="${document[n].section[n].subsection[n].typeDisplay}"/>
					</coding>
				</code>
		<text>
			<status value="additional"/>
			<div xmlns="http://www.w3.org/1999/xhtml">
		    <p class="MsoNormal"></p><p class="MsoNormal"><span lang="ES" style="font-size:11.0pt;color:black">GONAL‑f 1050 UI/1,75 ml polvo para solución inyectable</span></p><p class="MsoNormal"><span lang="ES" style="font-size:11.0pt;color:black">folitropina alfa</span></p><p class="MsoNormal"><span lang="ES" style="font-size:11.0pt;color:black">SC</span></p><p class="MsoNormal"></p><p class="MsoNormal"></p>
			</div>
		</text>
		
    	    
		
</section>
			    
    	    

			    
		               
<section>
			<title value="2.       FORMA DE ADMINISTRACIÓN"/>
				<code>
					<coding>
						<system value="http://spor.ema.europa.eu/v1/example-sections"/>
						<code value="${document[n].section[n].subsection[n].typeCode}"/>
						<display value="${document[n].section[n].subsection[n].typeDisplay}"/>
					</coding>
				</code>
		<text>
			<status value="additional"/>
			<div xmlns="http://www.w3.org/1999/xhtml">
		    <p class="MsoNormal"></p><p class="MsoNormal"></p>
			</div>
		</text>
		
    	    
		
</section>
			    
    	    

			    
		               
<section>
			<title value="3.       FECHA DE CADUCIDAD"/>
				<code>
					<coding>
						<system value="http://spor.ema.europa.eu/v1/example-sections"/>
						<code value="${document[n].section[n].subsection[n].typeCode}"/>
						<display value="${document[n].section[n].subsection[n].typeDisplay}"/>
					</coding>
				</code>
		<text>
			<status value="additional"/>
			<div xmlns="http://www.w3.org/1999/xhtml">
		    <p class="MsoHeader"></p><p class="MsoNormal"><span lang="ES" style="font-size:11.0pt;color:black">CAD</span></p><p class="MsoNormal"></p><p class="MsoNormal"></p><div style="border:solid windowtext 1.0pt;padding:1.0pt 4.0pt 1.0pt 4.0pt"> <p class="MsoNormal" style="margin-left:28.35pt;text-indent:-28.35pt;border:none; padding:0in"><b><span lang="ES" style="font-size:11.0pt;color:black">4.       FECHA DE RECONSTITUCIÓN</span></b></p> </div><p class="MsoNormal"></p><p class="MsoNormal"><span lang="ES" style="font-size:11.0pt;color:black">Fecha:</span></p><p class="MsoNormal"></p><p class="MsoNormal"></p>
			</div>
		</text>
		
    	    
		
</section>
			    
    	    

			    
		               
<section>
			<title value="5.       NÚMERO DE LOTE"/>
				<code>
					<coding>
						<system value="http://spor.ema.europa.eu/v1/example-sections"/>
						<code value="${document[n].section[n].subsection[n].typeCode}"/>
						<display value="${document[n].section[n].subsection[n].typeDisplay}"/>
					</coding>
				</code>
		<text>
			<status value="additional"/>
			<div xmlns="http://www.w3.org/1999/xhtml">
		    <p class="MsoNormal" style="margin-left:28.35pt;text-indent:-28.35pt"></p><p class="MsoNormal"><span lang="ES" style="font-size:11.0pt;color:black">Lote</span></p><p class="MsoNormal" style="margin-left:28.35pt;text-indent:-28.35pt"></p><p class="MsoNormal" style="margin-left:28.35pt;text-indent:-28.35pt"></p>
			</div>
		</text>
		
    	    
		
</section>
			    
    	    

			    
		               
<section>
			<title value="6.       CONTENIDO EN PESO, EN VOLUMEN O EN UNIDADES"/>
				<code>
					<coding>
						<system value="http://spor.ema.europa.eu/v1/example-sections"/>
						<code value="${document[n].section[n].subsection[n].typeCode}"/>
						<display value="${document[n].section[n].subsection[n].typeDisplay}"/>
					</coding>
				</code>
		<text>
			<status value="additional"/>
			<div xmlns="http://www.w3.org/1999/xhtml">
		    <p class="MsoNormal"></p><p class="MsoNormal"><span lang="ES" style="font-size:11.0pt;color:black">1.200 UI/vial</span></p><p class="MsoNormal"></p><p class="MsoNormal"></p><div style="border:solid windowtext 1.0pt;padding:2.0pt 4.0pt 1.0pt 4.0pt"> <p class="MsoNormal" style="margin-left:28.35pt;text-indent:-28.35pt;border:none; padding:0in"><b><span lang="ES" style="font-size:11.0pt;color:black">7.       OTROS</span></b></p> </div><p class="MsoNormal"></p><p class="MsoNormal"></p><span lang="ES" style='font-size:11.0pt;font-family:"Times New Roman",serif; color:black'><br clear="all" style="page-break-before:always"/> </span><br clear="all" style="page-break-before:always"/>
			</div>
		</text>
		
    	    
		
</section>
			    
    	    

			    
		               
<section>
			<title value="6.       OTROS"/>
				<code>
					<coding>
						<system value="http://spor.ema.europa.eu/v1/example-sections"/>
						<code value="${document[n].section[n].subsection[n].typeCode}"/>
						<display value="${document[n].section[n].subsection[n].typeDisplay}"/>
					</coding>
				</code>
		<text>
			<status value="additional"/>
			<div xmlns="http://www.w3.org/1999/xhtml">
		    <p class="MsoNormal"></p><p class="MsoNormal"></p><span lang="ES" style='font-size:11.0pt;font-family:"Times New Roman",serif; color:black'><br clear="all" style="page-break-before:always"/> </span><br clear="all" style="page-break-before:always"/>
			</div>
		</text>
		
    	    
		
</section>
			    
    	    
		
</section>
			    
    	    
		
	
		
		
    	    
				
			    
						
		               
<section>
			<title value="INFORMACIÓN QUE DEBE FIGURAR EN EL EMBALAJE EXTERIOR"/>
				<code>
					<coding>
						<system value="http://spor.ema.europa.eu/v1/example-sections"/>
						<code value="${document[n].section[n].subsection[n].typeCode}"/>
						<display value="${document[n].section[n].subsection[n].typeDisplay}"/>
					</coding>
				</code>
		<text>
			<status value="additional"/>
			<div xmlns="http://www.w3.org/1999/xhtml">
		    <div style="border:solid windowtext 1.0pt;padding:1.0pt 4.0pt 1.0pt 4.0pt"> <p class="MsoNormal" style="border:none;padding:0in"></p> <p class="MsoNormal" style="border:none;padding:0in"><b><span lang="ES" style="font-size:11.0pt">GONAL‑f 450 UI/0,75 ML,<span style="color:black">CAJA DE 1 VIAL Y 1 JERINGA PRECARGADA</span></span></b></p> </div><p class="MsoNormal"></p><p class="MsoNormal"></p>
			</div>
		</text>
		
    	    

			    
		               
<section>
			<title value="1.       NOMBRE DEL MEDICAMENTO"/>
				<code>
					<coding>
						<system value="http://spor.ema.europa.eu/v1/example-sections"/>
						<code value="${document[n].section[n].subsection[n].typeCode}"/>
						<display value="${document[n].section[n].subsection[n].typeDisplay}"/>
					</coding>
				</code>
		<text>
			<status value="additional"/>
			<div xmlns="http://www.w3.org/1999/xhtml">
		    <p class="MsoNormal"></p><p class="MsoNormal"><span lang="ES" style="font-size:11.0pt;color:black">GONAL‑f 450 UI/0,75 ml polvo y disolvente para solución inyectable</span></p><p class="MsoNormal"><span lang="PT" style="font-size:11.0pt;color:black">folitropina alfa</span></p><p class="MsoNormal"></p><p class="MsoNormal"></p>
			</div>
		</text>
		
    	    
		
</section>
			    
    	    

			    
		               
<section>
			<title value="2.       PRINCIPIO(S) ACTIVO(S)"/>
				<code>
					<coding>
						<system value="http://spor.ema.europa.eu/v1/example-sections"/>
						<code value="${document[n].section[n].subsection[n].typeCode}"/>
						<display value="${document[n].section[n].subsection[n].typeDisplay}"/>
					</coding>
				</code>
		<text>
			<status value="additional"/>
			<div xmlns="http://www.w3.org/1999/xhtml">
		    <p class="MsoNormal"></p><p class="MsoNormal"><span lang="PT" style="font-size:11.0pt;color:black">Cada vial multidosis contiene 44 microgramos de folitropina alfa, equivalente a 600 UI. Cada ml de la solución reconstituida contiene 600 UI.</span></p><p class="MsoNormal"></p><p class="MsoNormal"></p>
			</div>
		</text>
		
    	    
		
</section>
			    
    	    

			    
		               
<section>
			<title value="3.       LISTA DE EXCIPIENTES"/>
				<code>
					<coding>
						<system value="http://spor.ema.europa.eu/v1/example-sections"/>
						<code value="${document[n].section[n].subsection[n].typeCode}"/>
						<display value="${document[n].section[n].subsection[n].typeDisplay}"/>
					</coding>
				</code>
		<text>
			<status value="additional"/>
			<div xmlns="http://www.w3.org/1999/xhtml">
		    <p class="MsoNormal"></p><p class="MsoNormal"><span lang="PT" style="font-size:11.0pt;color:black">Excipientes: sacarosa, dihidrogenofosfato de sodio monohidrato, hidrogenofosfato de disodio dihidrato, ácido fosfórico concentrado e hidróxido de sodio.</span></p><p class="MsoNormal"><span lang="ES" style="font-size:11.0pt;color:black">Disolvente para solución inyectable: agua para preparaciones inyectables, alcohol bencílico al 0,9 %.</span></p><p class="MsoNormal"></p><p class="MsoNormal"></p>
			</div>
		</text>
		
    	    
		
</section>
			    
    	    

			    
		               
<section>
			<title value="4.       FORMA FARMACÉUTICA Y CONTENIDO DEL ENVASE"/>
				<code>
					<coding>
						<system value="http://spor.ema.europa.eu/v1/example-sections"/>
						<code value="${document[n].section[n].subsection[n].typeCode}"/>
						<display value="${document[n].section[n].subsection[n].typeDisplay}"/>
					</coding>
				</code>
		<text>
			<status value="additional"/>
			<div xmlns="http://www.w3.org/1999/xhtml">
		    <p class="MsoNormal"></p><p class="MsoNormal"><span lang="ES" style="font-size:11.0pt;color:black">1 vial de polvo para solución inyectable.</span></p><p class="MsoNormal"><span lang="ES" style="font-size:11.0pt;color:black">1 jeringa precargada de 1 ml de disolvente.</span></p><p class="MsoNormal"><span lang="ES" style="font-size:11.0pt;color:black">6 jeringas desechables para la administración, graduadas en unidades de FSH.</span></p><p class="MsoNormal"></p><p class="MsoNormal"></p>
			</div>
		</text>
		
    	    
		
</section>
			    
    	    

			    
		               
<section>
			<title value="5.       FORMA Y VÍA(S) DE ADMINISTRACIÓN"/>
				<code>
					<coding>
						<system value="http://spor.ema.europa.eu/v1/example-sections"/>
						<code value="${document[n].section[n].subsection[n].typeCode}"/>
						<display value="${document[n].section[n].subsection[n].typeDisplay}"/>
					</coding>
				</code>
		<text>
			<status value="additional"/>
			<div xmlns="http://www.w3.org/1999/xhtml">
		    <p class="MsoNormal"></p><p class="MsoNormal"><span lang="ES" style="font-size:11.0pt;color:black">Sólo para inyecciones múltiples.</span></p><p class="MsoNormal"><span lang="ES" style="font-size:11.0pt;color:black">Leer el prospecto antes de utilizar este medicamento.</span></p><p class="MsoNormal"><span lang="ES" style="font-size:11.0pt;color:black">Vía subcutánea.</span></p><p class="MsoNormal"></p><p class="MsoNormal"></p>
			</div>
		</text>
		
    	    
		
</section>
			    
    	    

			    
		               
<section>
			<title value="6.       ADVERTENCIA ESPECIAL DE QUE EL MEDICAMENTO DEBE MANTENERSE FUERA DE LA VISTA Y DEL ALCANCE DE LOS NIÑOS"/>
				<code>
					<coding>
						<system value="http://spor.ema.europa.eu/v1/example-sections"/>
						<code value="${document[n].section[n].subsection[n].typeCode}"/>
						<display value="${document[n].section[n].subsection[n].typeDisplay}"/>
					</coding>
				</code>
		<text>
			<status value="additional"/>
			<div xmlns="http://www.w3.org/1999/xhtml">
		    <p class="MsoNormal"></p><p class="MsoNormal"><span lang="ES" style="font-size:11.0pt;color:black">Mantener fuera de la vista y del alcance de los niños.</span></p><p class="MsoNormal"></p><p class="MsoNormal"></p>
			</div>
		</text>
		
    	    
		
</section>
			    
    	    

			    
		               
<section>
			<title value="7.       OTRA(S) ADVERTENCIA(S) ESPECIAL(ES), SI ES NECESARIO"/>
				<code>
					<coding>
						<system value="http://spor.ema.europa.eu/v1/example-sections"/>
						<code value="${document[n].section[n].subsection[n].typeCode}"/>
						<display value="${document[n].section[n].subsection[n].typeDisplay}"/>
					</coding>
				</code>
		<text>
			<status value="additional"/>
			<div xmlns="http://www.w3.org/1999/xhtml">
		    <p class="MsoNormal" style="page-break-after:avoid"></p><p class="MsoNormal"><span lang="ES" style="font-size:11.0pt;color:black">La jeringa precargada de disolvente sólo debe utilizarse para la reconstitución.</span></p><p class="MsoNormal"><span lang="ES" style="font-size:11.0pt;color:black">El vial reconstituido debe ser utilizado por un solo paciente.</span></p><p class="MsoNormal"></p><p class="MsoNormal"></p>
			</div>
		</text>
		
    	    
		
</section>
			    
    	    

			    
		               
<section>
			<title value="8.       FECHA DE CADUCIDAD"/>
				<code>
					<coding>
						<system value="http://spor.ema.europa.eu/v1/example-sections"/>
						<code value="${document[n].section[n].subsection[n].typeCode}"/>
						<display value="${document[n].section[n].subsection[n].typeDisplay}"/>
					</coding>
				</code>
		<text>
			<status value="additional"/>
			<div xmlns="http://www.w3.org/1999/xhtml">
		    <p class="MsoNormal" style="page-break-after:avoid"></p><p class="MsoNormal"><span lang="ES" style="font-size:11.0pt;color:black">CAD</span></p><p class="MsoNormal"></p><p class="MsoNormal"></p>
			</div>
		</text>
		
    	    
		
</section>
			    
    	    

			    
		               
<section>
			<title value="9.       CONDICIONES ESPECIALES DE CONSERVACIÓN"/>
				<code>
					<coding>
						<system value="http://spor.ema.europa.eu/v1/example-sections"/>
						<code value="${document[n].section[n].subsection[n].typeCode}"/>
						<display value="${document[n].section[n].subsection[n].typeDisplay}"/>
					</coding>
				</code>
		<text>
			<status value="additional"/>
			<div xmlns="http://www.w3.org/1999/xhtml">
		    <p class="MsoNormal" style="page-break-after:avoid"></p><p class="MsoNormal"><span lang="ES" style="font-size:11.0pt;color:black">Antes de la reconstitución, no conservar a temperatura superior a 25ºC. Conservar en el embalaje original para protegerlo de la luz.</span></p><p class="MsoNormal"><span lang="ES" style="font-size:11.0pt;color:black">Tras la reconstitución, no conservar a temperatura superior a 25ºC. No congelar. Conservar en el envase original.</span></p><p class="MsoNormal"></p><p class="MsoNormal"></p>
			</div>
		</text>
		
    	    
		
</section>
			    
    	    

			    
		               
<section>
			<title value="10.     PRECAUCIONES ESPECIALES DE ELIMINACIÓN DEL MEDICAMENTO NO UTILIZADO Y DE LOS MATERIALES DERIVADOS DE SU USO (CUANDO CORRESPONDA)"/>
				<code>
					<coding>
						<system value="http://spor.ema.europa.eu/v1/example-sections"/>
						<code value="${document[n].section[n].subsection[n].typeCode}"/>
						<display value="${document[n].section[n].subsection[n].typeDisplay}"/>
					</coding>
				</code>
		<text>
			<status value="additional"/>
			<div xmlns="http://www.w3.org/1999/xhtml">
		    <p class="MsoNormal"></p><p class="MsoNormal"><span lang="ES" style="font-size:11.0pt;color:black">Desechar la solución no utilizada después de 28 días.</span></p><p class="MsoNormal"></p><p class="MsoNormal"></p>
			</div>
		</text>
		
    	    
		
</section>
			    
    	    

			    
		               
<section>
			<title value="11.     NOMBRE Y DIRECCIÓN DEL TITULAR DE LA AUTORIZACIÓN DE COMERCIALIZACIÓN"/>
				<code>
					<coding>
						<system value="http://spor.ema.europa.eu/v1/example-sections"/>
						<code value="${document[n].section[n].subsection[n].typeCode}"/>
						<display value="${document[n].section[n].subsection[n].typeDisplay}"/>
					</coding>
				</code>
		<text>
			<status value="additional"/>
			<div xmlns="http://www.w3.org/1999/xhtml">
		    <p class="MsoNormal"></p><p class="Listenabsatz1" style="margin:0in;margin-bottom:.0001pt;line-height: normal;page-break-after:avoid"><span lang="ES" style="font-size:11.0pt">Merck Europe B.V.</span></p><p class="Listenabsatz1" style="margin:0in;margin-bottom:.0001pt;line-height: normal;page-break-after:avoid"><span lang="ES" style="font-size:11.0pt">Gustav Mahlerplein 102</span></p><p class="Listenabsatz1" style="margin:0in;margin-bottom:.0001pt;line-height: normal;page-break-after:avoid"><span lang="ES" style="font-size:11.0pt">1082 MA Amsterdam</span></p><p class="MsoNormal"><span lang="ES" style="font-size:11.0pt">Países Bajos</span></p><p class="MsoFooter"></p><p class="MsoNormal"></p>
			</div>
		</text>
		
    	    
		
</section>
			    
    	    

			    
		               
<section>
			<title value="12.     NÚMERO(S) DE AUTORIZACIÓN DE COMERCIALIZACIÓN"/>
				<code>
					<coding>
						<system value="http://spor.ema.europa.eu/v1/example-sections"/>
						<code value="${document[n].section[n].subsection[n].typeCode}"/>
						<display value="${document[n].section[n].subsection[n].typeDisplay}"/>
					</coding>
				</code>
		<text>
			<status value="additional"/>
			<div xmlns="http://www.w3.org/1999/xhtml">
		    <p class="MsoNormal"></p><p class="MsoNormal"><span lang="ES" style="font-size:11.0pt;color:black">EU/1/95/001/031   <span style="background:#D9D9D9">1 vial de polvo para solución inyectable</span></span></p><p class="MsoNormal"><span lang="ES" style="font-size:11.0pt;color:black"> <span style="background:#D9D9D9">1 jeringa precargada de disolvente</span></span></p><p class="MsoNormal"><span lang="ES" style="font-size:11.0pt;color:black"> <span style="background:#D9D9D9">6 jeringas desechables</span></span></p><p class="MsoNormal"></p><p class="MsoNormal"></p>
			</div>
		</text>
		
    	    
		
</section>
			    
    	    

			    
		               
<section>
			<title value="13.     NÚMERO DE LOTE"/>
				<code>
					<coding>
						<system value="http://spor.ema.europa.eu/v1/example-sections"/>
						<code value="${document[n].section[n].subsection[n].typeCode}"/>
						<display value="${document[n].section[n].subsection[n].typeDisplay}"/>
					</coding>
				</code>
		<text>
			<status value="additional"/>
			<div xmlns="http://www.w3.org/1999/xhtml">
		    <p class="MsoNormal"></p><p class="MsoNormal"><span lang="ES" style="font-size:11.0pt;color:black">Lote</span></p><p class="MsoNormal"><span lang="ES" style="font-size:11.0pt;color:black">Lote de disolvente</span></p><p class="MsoNormal"></p><p class="MsoNormal"></p>
			</div>
		</text>
		
    	    
		
</section>
			    
    	    

			    
		               
<section>
			<title value="14.     CONDICIONES GENERALES DE DISPENSACIÓN"/>
				<code>
					<coding>
						<system value="http://spor.ema.europa.eu/v1/example-sections"/>
						<code value="${document[n].section[n].subsection[n].typeCode}"/>
						<display value="${document[n].section[n].subsection[n].typeDisplay}"/>
					</coding>
				</code>
		<text>
			<status value="additional"/>
			<div xmlns="http://www.w3.org/1999/xhtml">
		    <p class="MsoNormal" style="margin-left:.5in;text-indent:-.5in"></p><p class="MsoNormal"></p>
			</div>
		</text>
		
    	    
		
</section>
			    
    	    

			    
		               
<section>
			<title value="15.     INSTRUCCIONES DE USO"/>
				<code>
					<coding>
						<system value="http://spor.ema.europa.eu/v1/example-sections"/>
						<code value="${document[n].section[n].subsection[n].typeCode}"/>
						<display value="${document[n].section[n].subsection[n].typeDisplay}"/>
					</coding>
				</code>
		<text>
			<status value="additional"/>
			<div xmlns="http://www.w3.org/1999/xhtml">
		    <p class="MsoNormal"></p><p class="MsoNormal"></p>
			</div>
		</text>
		
    	    
		
</section>
			    
    	    

			    
		               
<section>
			<title value="16.     INFORMACIÓN EN BRAILLE"/>
				<code>
					<coding>
						<system value="http://spor.ema.europa.eu/v1/example-sections"/>
						<code value="${document[n].section[n].subsection[n].typeCode}"/>
						<display value="${document[n].section[n].subsection[n].typeDisplay}"/>
					</coding>
				</code>
		<text>
			<status value="additional"/>
			<div xmlns="http://www.w3.org/1999/xhtml">
		    <p class="MsoNormal" style="page-break-after:avoid"></p><p class="MsoNormal"><span lang="ES" style="font-size:11.0pt;color:black">gonal‑f 450 ui</span></p><p class="MsoNormal"></p><p align="left" class="MsoBodyText" style="text-align:left;page-break-after:auto"></p>
			</div>
		</text>
		
    	    
		
</section>
			    
    	    

			    
		               
<section>
			<title value="17.     IDENTIFICADOR ÚNICO - CÓDIGO DE BARRAS 2D"/>
				<code>
					<coding>
						<system value="http://spor.ema.europa.eu/v1/example-sections"/>
						<code value="${document[n].section[n].subsection[n].typeCode}"/>
						<display value="${document[n].section[n].subsection[n].typeDisplay}"/>
					</coding>
				</code>
		<text>
			<status value="additional"/>
			<div xmlns="http://www.w3.org/1999/xhtml">
		    <p class="MsoNormal" style="page-break-after:avoid"></p><p class="MsoNormal"><span lang="ES" style="font-size:11.0pt;color:black; background:#D9D9D9">Incluido el código de barras 2D que lleva el identificador único.</span></p><p class="MsoNormal"></p><p class="MsoNormal"></p>
			</div>
		</text>
		
    	    
		
</section>
			    
    	    

			    
		               
<section>
			<title value="18.     iDENTIFICADOR ÚNICO - INFORMACIÓN EN CARACTERES VISUALES"/>
				<code>
					<coding>
						<system value="http://spor.ema.europa.eu/v1/example-sections"/>
						<code value="${document[n].section[n].subsection[n].typeCode}"/>
						<display value="${document[n].section[n].subsection[n].typeDisplay}"/>
					</coding>
				</code>
		<text>
			<status value="additional"/>
			<div xmlns="http://www.w3.org/1999/xhtml">
		    <p class="MsoNormal" style="page-break-after:avoid"></p><p class="MsoNormal"><span lang="ES" style="font-size:11.0pt">PC</span></p><p class="MsoNormal"><span lang="ES" style="font-size:11.0pt">SN</span></p><p class="MsoNormal"><span lang="ES" style="font-size:11.0pt">NN</span></p><p class="MsoNormal"></p><span lang="ES" style='font-size:11.0pt;font-family:"Times New Roman",serif; color:black'><br clear="all" style="page-break-before:always"/> </span><br clear="all" style="page-break-before:always"/>
			</div>
		</text>
		
    	    
		
</section>
			    
    	    
		
</section>
			    
    	    
				
			    
						
		               
<section>
			<title value="INFORMACIÓN MÍNIMA QUE DEBE INCLUIRSE EN PEQUEÑOS ACONDICIONAMIENTOS PRIMARIOS"/>
				<code>
					<coding>
						<system value="http://spor.ema.europa.eu/v1/example-sections"/>
						<code value="${document[n].section[n].subsection[n].typeCode}"/>
						<display value="${document[n].section[n].subsection[n].typeDisplay}"/>
					</coding>
				</code>
		<text>
			<status value="additional"/>
			<div xmlns="http://www.w3.org/1999/xhtml">
		    <div style="border:solid windowtext 1.0pt;padding:2.0pt 4.0pt 1.0pt 4.0pt"> <p class="MsoNormal" style="border:none;padding:0in"></p> <p class="MsoNormal" style="border:none;padding:0in"><b><span lang="ES" style="font-size:11.0pt;color:black">ETIQUETA DEL VIAL DE GONAL‑f 450 UI/0,75 ML</span></b></p> </div><p class="MsoNormal"></p><p class="MsoNormal"></p>
			</div>
		</text>
		
    	    

			    
		               
<section>
			<title value="1.       NOMBRE DEL MEDICAMENTO Y VÍA(S) DE ADMINISTRACIÓN"/>
				<code>
					<coding>
						<system value="http://spor.ema.europa.eu/v1/example-sections"/>
						<code value="${document[n].section[n].subsection[n].typeCode}"/>
						<display value="${document[n].section[n].subsection[n].typeDisplay}"/>
					</coding>
				</code>
		<text>
			<status value="additional"/>
			<div xmlns="http://www.w3.org/1999/xhtml">
		    <p class="MsoNormal"></p><p class="MsoNormal"><span lang="ES" style="font-size:11.0pt;color:black">GONAL‑f 450 UI/0,75 ml polvo para solución inyectable</span></p><p class="MsoNormal"><span lang="ES" style="font-size:11.0pt;color:black">folitropina alfa</span></p><p class="MsoNormal"><span lang="ES" style="font-size:11.0pt;color:black">SC</span></p><p class="MsoNormal"></p><p class="MsoNormal"></p>
			</div>
		</text>
		
    	    
		
</section>
			    
    	    

			    
		               
<section>
			<title value="2.       FORMA DE ADMINISTRACIÓN"/>
				<code>
					<coding>
						<system value="http://spor.ema.europa.eu/v1/example-sections"/>
						<code value="${document[n].section[n].subsection[n].typeCode}"/>
						<display value="${document[n].section[n].subsection[n].typeDisplay}"/>
					</coding>
				</code>
		<text>
			<status value="additional"/>
			<div xmlns="http://www.w3.org/1999/xhtml">
		    <p class="MsoNormal"></p><p class="MsoNormal"></p>
			</div>
		</text>
		
    	    
		
</section>
			    
    	    

			    
		               
<section>
			<title value="3.       FECHA DE CADUCIDAD"/>
				<code>
					<coding>
						<system value="http://spor.ema.europa.eu/v1/example-sections"/>
						<code value="${document[n].section[n].subsection[n].typeCode}"/>
						<display value="${document[n].section[n].subsection[n].typeDisplay}"/>
					</coding>
				</code>
		<text>
			<status value="additional"/>
			<div xmlns="http://www.w3.org/1999/xhtml">
		    <p class="MsoHeader"></p><p class="MsoNormal"><span lang="ES" style="font-size:11.0pt;color:black">CAD</span></p><p class="MsoNormal"></p><p class="MsoNormal"></p><div style="border:solid windowtext 1.0pt;padding:1.0pt 4.0pt 1.0pt 4.0pt"> <p class="MsoNormal" style="margin-left:28.35pt;text-indent:-28.35pt;border:none; padding:0in"><b><span lang="ES" style="font-size:11.0pt;color:black">4.       FECHA DE RECONSTITUCIÓN</span></b></p> </div><p class="MsoNormal"></p><p class="MsoNormal"><span lang="ES" style="font-size:11.0pt;color:black">Fecha:</span></p><p class="MsoNormal"></p><p class="MsoNormal"></p>
			</div>
		</text>
		
    	    
		
</section>
			    
    	    

			    
		               
<section>
			<title value="5.       NÚMERO DE LOTE"/>
				<code>
					<coding>
						<system value="http://spor.ema.europa.eu/v1/example-sections"/>
						<code value="${document[n].section[n].subsection[n].typeCode}"/>
						<display value="${document[n].section[n].subsection[n].typeDisplay}"/>
					</coding>
				</code>
		<text>
			<status value="additional"/>
			<div xmlns="http://www.w3.org/1999/xhtml">
		    <p class="MsoNormal" style="margin-left:28.35pt;text-indent:-28.35pt"></p><p class="MsoNormal"><span lang="ES" style="font-size:11.0pt;color:black">Lote</span></p><p class="MsoNormal" style="margin-left:28.35pt;text-indent:-28.35pt"></p><p class="MsoNormal" style="margin-left:28.35pt;text-indent:-28.35pt"></p>
			</div>
		</text>
		
    	    
		
</section>
			    
    	    

			    
		               
<section>
			<title value="6.       CONTENIDO EN PESO, EN VOLUMEN O EN UNIDADES"/>
				<code>
					<coding>
						<system value="http://spor.ema.europa.eu/v1/example-sections"/>
						<code value="${document[n].section[n].subsection[n].typeCode}"/>
						<display value="${document[n].section[n].subsection[n].typeDisplay}"/>
					</coding>
				</code>
		<text>
			<status value="additional"/>
			<div xmlns="http://www.w3.org/1999/xhtml">
		    <p class="MsoNormal"></p><p class="MsoNormal"><span lang="ES" style="font-size:11.0pt;color:black">600 UI/vial</span></p><p class="MsoNormal"></p><p class="MsoNormal"></p><div style="border:solid windowtext 1.0pt;padding:2.0pt 4.0pt 1.0pt 4.0pt"> <p class="MsoNormal" style="margin-left:28.35pt;text-indent:-28.35pt;border:none; padding:0in"><b><span lang="ES" style="font-size:11.0pt;color:black">7.       OTROS</span></b></p> </div><p class="MsoNormal"></p><p class="MsoNormal"></p><span lang="ES" style='font-size:11.0pt;font-family:"Times New Roman",serif; color:black'><br clear="all" style="page-break-before:always"/> </span><br clear="all" style="page-break-before:always"/>
			</div>
		</text>
		
    	    
		
</section>
			    
    	    

			    
		               
<section>
			<title value="1.       NOMBRE DEL MEDICAMENTO Y VÍA(S) DE ADMINISTRACIÓN"/>
				<code>
					<coding>
						<system value="http://spor.ema.europa.eu/v1/example-sections"/>
						<code value="${document[n].section[n].subsection[n].typeCode}"/>
						<display value="${document[n].section[n].subsection[n].typeDisplay}"/>
					</coding>
				</code>
		<text>
			<status value="additional"/>
			<div xmlns="http://www.w3.org/1999/xhtml">
		    <p class="MsoNormal"></p><p class="MsoNormal"><span lang="ES" style="font-size:11.0pt;color:black">GONAL‑f 450 UI/0,75 ml polvo para solución inyectable</span></p><p class="MsoNormal"><span lang="ES" style="font-size:11.0pt;color:black">folitropina alfa</span></p><p class="MsoNormal"><span lang="ES" style="font-size:11.0pt;color:black">SC</span></p><p class="MsoNormal"></p><p class="MsoNormal"></p>
			</div>
		</text>
		
    	    
		
</section>
			    
    	    

			    
		               
<section>
			<title value="2.       FORMA DE ADMINISTRACIÓN"/>
				<code>
					<coding>
						<system value="http://spor.ema.europa.eu/v1/example-sections"/>
						<code value="${document[n].section[n].subsection[n].typeCode}"/>
						<display value="${document[n].section[n].subsection[n].typeDisplay}"/>
					</coding>
				</code>
		<text>
			<status value="additional"/>
			<div xmlns="http://www.w3.org/1999/xhtml">
		    <p class="MsoNormal"></p><p class="MsoNormal"></p>
			</div>
		</text>
		
    	    
		
</section>
			    
    	    

			    
		               
<section>
			<title value="3.       FECHA DE CADUCIDAD"/>
				<code>
					<coding>
						<system value="http://spor.ema.europa.eu/v1/example-sections"/>
						<code value="${document[n].section[n].subsection[n].typeCode}"/>
						<display value="${document[n].section[n].subsection[n].typeDisplay}"/>
					</coding>
				</code>
		<text>
			<status value="additional"/>
			<div xmlns="http://www.w3.org/1999/xhtml">
		    <p class="MsoHeader"></p><p class="MsoNormal"><span lang="ES" style="font-size:11.0pt;color:black">CAD</span></p><p class="MsoNormal"></p><p class="MsoNormal"></p><div style="border:solid windowtext 1.0pt;padding:1.0pt 4.0pt 1.0pt 4.0pt"> <p class="MsoNormal" style="margin-left:28.35pt;text-indent:-28.35pt;border:none; padding:0in"><b><span lang="ES" style="font-size:11.0pt;color:black">4.       FECHA DE RECONSTITUCIÓN</span></b></p> </div><p class="MsoNormal"></p><p class="MsoNormal"><span lang="ES" style="font-size:11.0pt;color:black">Fecha:</span></p><p class="MsoNormal"></p><p class="MsoNormal"></p>
			</div>
		</text>
		
    	    
		
</section>
			    
    	    

			    
		               
<section>
			<title value="5.       NÚMERO DE LOTE"/>
				<code>
					<coding>
						<system value="http://spor.ema.europa.eu/v1/example-sections"/>
						<code value="${document[n].section[n].subsection[n].typeCode}"/>
						<display value="${document[n].section[n].subsection[n].typeDisplay}"/>
					</coding>
				</code>
		<text>
			<status value="additional"/>
			<div xmlns="http://www.w3.org/1999/xhtml">
		    <p class="MsoNormal" style="margin-left:28.35pt;text-indent:-28.35pt"></p><p class="MsoNormal"><span lang="ES" style="font-size:11.0pt;color:black">Lote</span></p><p class="MsoNormal" style="margin-left:28.35pt;text-indent:-28.35pt"></p><p class="MsoNormal" style="margin-left:28.35pt;text-indent:-28.35pt"></p>
			</div>
		</text>
		
    	    
		
</section>
			    
    	    

			    
		               
<section>
			<title value="6.       CONTENIDO EN PESO, EN VOLUMEN O EN UNIDADES"/>
				<code>
					<coding>
						<system value="http://spor.ema.europa.eu/v1/example-sections"/>
						<code value="${document[n].section[n].subsection[n].typeCode}"/>
						<display value="${document[n].section[n].subsection[n].typeDisplay}"/>
					</coding>
				</code>
		<text>
			<status value="additional"/>
			<div xmlns="http://www.w3.org/1999/xhtml">
		    <p class="MsoNormal"></p><p class="MsoNormal"><span lang="ES" style="font-size:11.0pt;color:black">600 UI/vial</span></p><p class="MsoNormal"></p><p class="MsoNormal"></p><div style="border:solid windowtext 1.0pt;padding:2.0pt 4.0pt 1.0pt 4.0pt"> <p class="MsoNormal" style="margin-left:28.35pt;text-indent:-28.35pt;border:none; padding:0in"><b><span lang="ES" style="font-size:11.0pt;color:black">7.       OTROS</span></b></p> </div><p class="MsoNormal"></p><p class="MsoNormal"></p><span lang="ES" style='font-size:11.0pt;font-family:"Times New Roman",serif; color:black'><br clear="all" style="page-break-before:always"/> </span><br clear="all" style="page-break-before:always"/>
			</div>
		</text>
		
    	    
		
</section>
			    
    	    

			    
		               
<section>
			<title value="6.       OTROS"/>
				<code>
					<coding>
						<system value="http://spor.ema.europa.eu/v1/example-sections"/>
						<code value="${document[n].section[n].subsection[n].typeCode}"/>
						<display value="${document[n].section[n].subsection[n].typeDisplay}"/>
					</coding>
				</code>
		<text>
			<status value="additional"/>
			<div xmlns="http://www.w3.org/1999/xhtml">
		    <p class="MsoNormal"></p><p class="MsoNormal"></p><span lang="ES" style='font-size:11.0pt;font-family:"Times New Roman",serif; color:black'><br clear="all" style="page-break-before:always"/> </span><br clear="all" style="page-break-before:always"/>
			</div>
		</text>
		
    	    
		
</section>
			    
    	    
		
</section>
			    
    	    
				
			    
						
		               
<section>
			<title value="INFORMACIÓN MÍNIMA QUE DEBE INCLUIRSE EN PEQUEÑOS ACONDICIONAMIENTOS PRIMARIOS"/>
				<code>
					<coding>
						<system value="http://spor.ema.europa.eu/v1/example-sections"/>
						<code value="${document[n].section[n].subsection[n].typeCode}"/>
						<display value="${document[n].section[n].subsection[n].typeDisplay}"/>
					</coding>
				</code>
		<text>
			<status value="additional"/>
			<div xmlns="http://www.w3.org/1999/xhtml">
		    <div style="border:solid windowtext 1.0pt;padding:2.0pt 4.0pt 1.0pt 4.0pt"> <p class="MsoNormal" style="border:none;padding:0in"></p> <p class="MsoNormal" style="border:none;padding:0in"><b><span lang="ES" style="font-size:11.0pt;color:black">ETIQUETA DEL VIAL DE GONAL‑f 450 UI/0,75 ML</span></b></p> </div><p class="MsoNormal"></p><p class="MsoNormal"></p>
			</div>
		</text>
		
    	    

			    
		               
<section>
			<title value="1.       NOMBRE DEL MEDICAMENTO Y VÍA(S) DE ADMINISTRACIÓN"/>
				<code>
					<coding>
						<system value="http://spor.ema.europa.eu/v1/example-sections"/>
						<code value="${document[n].section[n].subsection[n].typeCode}"/>
						<display value="${document[n].section[n].subsection[n].typeDisplay}"/>
					</coding>
				</code>
		<text>
			<status value="additional"/>
			<div xmlns="http://www.w3.org/1999/xhtml">
		    <p class="MsoNormal"></p><p class="MsoNormal"><span lang="ES" style="font-size:11.0pt;color:black">GONAL‑f 450 UI/0,75 ml polvo para solución inyectable</span></p><p class="MsoNormal"><span lang="ES" style="font-size:11.0pt;color:black">folitropina alfa</span></p><p class="MsoNormal"><span lang="ES" style="font-size:11.0pt;color:black">SC</span></p><p class="MsoNormal"></p><p class="MsoNormal"></p>
			</div>
		</text>
		
    	    
		
</section>
			    
    	    

			    
		               
<section>
			<title value="2.       FORMA DE ADMINISTRACIÓN"/>
				<code>
					<coding>
						<system value="http://spor.ema.europa.eu/v1/example-sections"/>
						<code value="${document[n].section[n].subsection[n].typeCode}"/>
						<display value="${document[n].section[n].subsection[n].typeDisplay}"/>
					</coding>
				</code>
		<text>
			<status value="additional"/>
			<div xmlns="http://www.w3.org/1999/xhtml">
		    <p class="MsoNormal"></p><p class="MsoNormal"></p>
			</div>
		</text>
		
    	    
		
</section>
			    
    	    

			    
		               
<section>
			<title value="3.       FECHA DE CADUCIDAD"/>
				<code>
					<coding>
						<system value="http://spor.ema.europa.eu/v1/example-sections"/>
						<code value="${document[n].section[n].subsection[n].typeCode}"/>
						<display value="${document[n].section[n].subsection[n].typeDisplay}"/>
					</coding>
				</code>
		<text>
			<status value="additional"/>
			<div xmlns="http://www.w3.org/1999/xhtml">
		    <p class="MsoHeader"></p><p class="MsoNormal"><span lang="ES" style="font-size:11.0pt;color:black">CAD</span></p><p class="MsoNormal"></p><p class="MsoNormal"></p><div style="border:solid windowtext 1.0pt;padding:1.0pt 4.0pt 1.0pt 4.0pt"> <p class="MsoNormal" style="margin-left:28.35pt;text-indent:-28.35pt;border:none; padding:0in"><b><span lang="ES" style="font-size:11.0pt;color:black">4.       FECHA DE RECONSTITUCIÓN</span></b></p> </div><p class="MsoNormal"></p><p class="MsoNormal"><span lang="ES" style="font-size:11.0pt;color:black">Fecha:</span></p><p class="MsoNormal"></p><p class="MsoNormal"></p>
			</div>
		</text>
		
    	    
		
</section>
			    
    	    

			    
		               
<section>
			<title value="5.       NÚMERO DE LOTE"/>
				<code>
					<coding>
						<system value="http://spor.ema.europa.eu/v1/example-sections"/>
						<code value="${document[n].section[n].subsection[n].typeCode}"/>
						<display value="${document[n].section[n].subsection[n].typeDisplay}"/>
					</coding>
				</code>
		<text>
			<status value="additional"/>
			<div xmlns="http://www.w3.org/1999/xhtml">
		    <p class="MsoNormal" style="margin-left:28.35pt;text-indent:-28.35pt"></p><p class="MsoNormal"><span lang="ES" style="font-size:11.0pt;color:black">Lote</span></p><p class="MsoNormal" style="margin-left:28.35pt;text-indent:-28.35pt"></p><p class="MsoNormal" style="margin-left:28.35pt;text-indent:-28.35pt"></p>
			</div>
		</text>
		
    	    
		
</section>
			    
    	    

			    
		               
<section>
			<title value="6.       CONTENIDO EN PESO, EN VOLUMEN O EN UNIDADES"/>
				<code>
					<coding>
						<system value="http://spor.ema.europa.eu/v1/example-sections"/>
						<code value="${document[n].section[n].subsection[n].typeCode}"/>
						<display value="${document[n].section[n].subsection[n].typeDisplay}"/>
					</coding>
				</code>
		<text>
			<status value="additional"/>
			<div xmlns="http://www.w3.org/1999/xhtml">
		    <p class="MsoNormal"></p><p class="MsoNormal"><span lang="ES" style="font-size:11.0pt;color:black">600 UI/vial</span></p><p class="MsoNormal"></p><p class="MsoNormal"></p><div style="border:solid windowtext 1.0pt;padding:2.0pt 4.0pt 1.0pt 4.0pt"> <p class="MsoNormal" style="margin-left:28.35pt;text-indent:-28.35pt;border:none; padding:0in"><b><span lang="ES" style="font-size:11.0pt;color:black">7.       OTROS</span></b></p> </div><p class="MsoNormal"></p><p class="MsoNormal"></p><span lang="ES" style='font-size:11.0pt;font-family:"Times New Roman",serif; color:black'><br clear="all" style="page-break-before:always"/> </span><br clear="all" style="page-break-before:always"/>
			</div>
		</text>
		
    	    
		
</section>
			    
    	    

			    
		               
<section>
			<title value="1.       NOMBRE DEL MEDICAMENTO Y VÍA(S) DE ADMINISTRACIÓN"/>
				<code>
					<coding>
						<system value="http://spor.ema.europa.eu/v1/example-sections"/>
						<code value="${document[n].section[n].subsection[n].typeCode}"/>
						<display value="${document[n].section[n].subsection[n].typeDisplay}"/>
					</coding>
				</code>
		<text>
			<status value="additional"/>
			<div xmlns="http://www.w3.org/1999/xhtml">
		    <p class="MsoNormal"></p><p class="MsoNormal"><span lang="ES" style="font-size:11.0pt;color:black">GONAL‑f 450 UI/0,75 ml polvo para solución inyectable</span></p><p class="MsoNormal"><span lang="ES" style="font-size:11.0pt;color:black">folitropina alfa</span></p><p class="MsoNormal"><span lang="ES" style="font-size:11.0pt;color:black">SC</span></p><p class="MsoNormal"></p><p class="MsoNormal"></p>
			</div>
		</text>
		
    	    
		
</section>
			    
    	    

			    
		               
<section>
			<title value="2.       FORMA DE ADMINISTRACIÓN"/>
				<code>
					<coding>
						<system value="http://spor.ema.europa.eu/v1/example-sections"/>
						<code value="${document[n].section[n].subsection[n].typeCode}"/>
						<display value="${document[n].section[n].subsection[n].typeDisplay}"/>
					</coding>
				</code>
		<text>
			<status value="additional"/>
			<div xmlns="http://www.w3.org/1999/xhtml">
		    <p class="MsoNormal"></p><p class="MsoNormal"></p>
			</div>
		</text>
		
    	    
		
</section>
			    
    	    

			    
		               
<section>
			<title value="3.       FECHA DE CADUCIDAD"/>
				<code>
					<coding>
						<system value="http://spor.ema.europa.eu/v1/example-sections"/>
						<code value="${document[n].section[n].subsection[n].typeCode}"/>
						<display value="${document[n].section[n].subsection[n].typeDisplay}"/>
					</coding>
				</code>
		<text>
			<status value="additional"/>
			<div xmlns="http://www.w3.org/1999/xhtml">
		    <p class="MsoHeader"></p><p class="MsoNormal"><span lang="ES" style="font-size:11.0pt;color:black">CAD</span></p><p class="MsoNormal"></p><p class="MsoNormal"></p><div style="border:solid windowtext 1.0pt;padding:1.0pt 4.0pt 1.0pt 4.0pt"> <p class="MsoNormal" style="margin-left:28.35pt;text-indent:-28.35pt;border:none; padding:0in"><b><span lang="ES" style="font-size:11.0pt;color:black">4.       FECHA DE RECONSTITUCIÓN</span></b></p> </div><p class="MsoNormal"></p><p class="MsoNormal"><span lang="ES" style="font-size:11.0pt;color:black">Fecha:</span></p><p class="MsoNormal"></p><p class="MsoNormal"></p>
			</div>
		</text>
		
    	    
		
</section>
			    
    	    

			    
		               
<section>
			<title value="5.       NÚMERO DE LOTE"/>
				<code>
					<coding>
						<system value="http://spor.ema.europa.eu/v1/example-sections"/>
						<code value="${document[n].section[n].subsection[n].typeCode}"/>
						<display value="${document[n].section[n].subsection[n].typeDisplay}"/>
					</coding>
				</code>
		<text>
			<status value="additional"/>
			<div xmlns="http://www.w3.org/1999/xhtml">
		    <p class="MsoNormal" style="margin-left:28.35pt;text-indent:-28.35pt"></p><p class="MsoNormal"><span lang="ES" style="font-size:11.0pt;color:black">Lote</span></p><p class="MsoNormal" style="margin-left:28.35pt;text-indent:-28.35pt"></p><p class="MsoNormal" style="margin-left:28.35pt;text-indent:-28.35pt"></p>
			</div>
		</text>
		
    	    
		
</section>
			    
    	    

			    
		               
<section>
			<title value="6.       CONTENIDO EN PESO, EN VOLUMEN O EN UNIDADES"/>
				<code>
					<coding>
						<system value="http://spor.ema.europa.eu/v1/example-sections"/>
						<code value="${document[n].section[n].subsection[n].typeCode}"/>
						<display value="${document[n].section[n].subsection[n].typeDisplay}"/>
					</coding>
				</code>
		<text>
			<status value="additional"/>
			<div xmlns="http://www.w3.org/1999/xhtml">
		    <p class="MsoNormal"></p><p class="MsoNormal"><span lang="ES" style="font-size:11.0pt;color:black">600 UI/vial</span></p><p class="MsoNormal"></p><p class="MsoNormal"></p><div style="border:solid windowtext 1.0pt;padding:2.0pt 4.0pt 1.0pt 4.0pt"> <p class="MsoNormal" style="margin-left:28.35pt;text-indent:-28.35pt;border:none; padding:0in"><b><span lang="ES" style="font-size:11.0pt;color:black">7.       OTROS</span></b></p> </div><p class="MsoNormal"></p><p class="MsoNormal"></p><span lang="ES" style='font-size:11.0pt;font-family:"Times New Roman",serif; color:black'><br clear="all" style="page-break-before:always"/> </span><br clear="all" style="page-break-before:always"/>
			</div>
		</text>
		
    	    
		
</section>
			    
    	    

			    
		               
<section>
			<title value="6.       OTROS"/>
				<code>
					<coding>
						<system value="http://spor.ema.europa.eu/v1/example-sections"/>
						<code value="${document[n].section[n].subsection[n].typeCode}"/>
						<display value="${document[n].section[n].subsection[n].typeDisplay}"/>
					</coding>
				</code>
		<text>
			<status value="additional"/>
			<div xmlns="http://www.w3.org/1999/xhtml">
		    <p class="MsoNormal"></p><p class="MsoNormal"></p><span lang="ES" style='font-size:11.0pt;font-family:"Times New Roman",serif; color:black'><br clear="all" style="page-break-before:always"/> </span><br clear="all" style="page-break-before:always"/>
			</div>
		</text>
		
    	    
		
</section>
			    
    	    
		
</section>
			    
    	    
		
	
		
		
    	    
				
			    
						
		               
<section>
			<title value="INFORMACIÓN QUE DEBE FIGURAR EN EL EMBALAJE EXTERIOR"/>
				<code>
					<coding>
						<system value="http://spor.ema.europa.eu/v1/example-sections"/>
						<code value="${document[n].section[n].subsection[n].typeCode}"/>
						<display value="${document[n].section[n].subsection[n].typeDisplay}"/>
					</coding>
				</code>
		<text>
			<status value="additional"/>
			<div xmlns="http://www.w3.org/1999/xhtml">
		    <div style="border:solid windowtext 1.0pt;padding:1.0pt 4.0pt 1.0pt 4.0pt"> <p class="MsoNormal" style="margin-left:28.35pt;text-indent:-28.35pt;border:none; padding:0in"></p> <p class="MsoNormal" style="margin-left:28.35pt;text-indent:-28.35pt;border:none; padding:0in"><b><span lang="ES" style="font-size:11.0pt;text-transform:uppercase">Gonal‑</span></b><b><span lang="ES" style="font-size:11.0pt">f<span style="text-transform:uppercase"> 150 UI/0,25 ML pluma, </span><span style="color:black">CAJA DE 1 PLUMA PRECARGADA</span></span></b></p> </div><p class="MsoNormal"></p><p class="MsoNormal"></p>
			</div>
		</text>
		
    	    

			    
		               
<section>
			<title value="1.       NOMBRE DEL MEDICAMENTO"/>
				<code>
					<coding>
						<system value="http://spor.ema.europa.eu/v1/example-sections"/>
						<code value="${document[n].section[n].subsection[n].typeCode}"/>
						<display value="${document[n].section[n].subsection[n].typeDisplay}"/>
					</coding>
				</code>
		<text>
			<status value="additional"/>
			<div xmlns="http://www.w3.org/1999/xhtml">
		    <p class="MsoNormal"></p><p class="MsoNormal"><span lang="ES" style="font-size:11.0pt;color:black">GONAL‑f 150 UI/0,25 ml solución inyectable en pluma precargada</span></p><p class="MsoNormal"><span lang="PT" style="font-size:11.0pt;color:black">folitropina alfa</span></p><p class="MsoNormal"></p><p class="MsoNormal"></p>
			</div>
		</text>
		
    	    
		
</section>
			    
    	    

			    
		               
<section>
			<title value="2.       PRINCIPIO(S) ACTIVO(S)"/>
				<code>
					<coding>
						<system value="http://spor.ema.europa.eu/v1/example-sections"/>
						<code value="${document[n].section[n].subsection[n].typeCode}"/>
						<display value="${document[n].section[n].subsection[n].typeDisplay}"/>
					</coding>
				</code>
		<text>
			<status value="additional"/>
			<div xmlns="http://www.w3.org/1999/xhtml">
		    <p class="MsoNormal"></p><p class="MsoNormal"><span lang="PT" style="font-size:11.0pt;color:black">Cada pluma precargada multidosis proporciona 150 UI de folitropina alfa, equivalente a 11 microgramos, por 0,25 ml.</span></p><p class="MsoNormal"><span lang="PT" style="font-size:11.0pt;color:black">Folitropina alfa, 600 UI/ml (equivalente a 44 microgramos/ml).</span></p><p class="MsoNormal"></p><p class="MsoNormal"></p>
			</div>
		</text>
		
    	    
		
</section>
			    
    	    

			    
		               
<section>
			<title value="3.       LISTA DE EXCIPIENTES"/>
				<code>
					<coding>
						<system value="http://spor.ema.europa.eu/v1/example-sections"/>
						<code value="${document[n].section[n].subsection[n].typeCode}"/>
						<display value="${document[n].section[n].subsection[n].typeDisplay}"/>
					</coding>
				</code>
		<text>
			<status value="additional"/>
			<div xmlns="http://www.w3.org/1999/xhtml">
		    <p class="MsoNormal"></p><p class="MsoNormal"><span lang="PT" style="font-size:11.0pt;color:black">Excipientes: Poloxámero 188, sacarosa, metionina, dihidrogenofosfato de sodio monohidrato, hidrogenofosfato de disodio dihidrato, m‑cresol, ácido fosfórico concentrado, hidróxido de sodio y agua para preparaciones inyectables.</span></p><p class="MsoNormal"></p><p class="MsoNormal"></p>
			</div>
		</text>
		
    	    
		
</section>
			    
    	    

			    
		               
<section>
			<title value="4.       FORMA FARMACÉUTICA Y CONTENIDO DEL ENVASE"/>
				<code>
					<coding>
						<system value="http://spor.ema.europa.eu/v1/example-sections"/>
						<code value="${document[n].section[n].subsection[n].typeCode}"/>
						<display value="${document[n].section[n].subsection[n].typeDisplay}"/>
					</coding>
				</code>
		<text>
			<status value="additional"/>
			<div xmlns="http://www.w3.org/1999/xhtml">
		    <p class="MsoNormal"></p><p class="MsoNormal"><span lang="ES" style="font-size:11.0pt;color:black">Solución inyectable en pluma precargada.</span></p><p class="MsoNormal"><span lang="ES" style="font-size:11.0pt;color:black">1 pluma precargada multidosis</span></p><p class="MsoNormal"><span lang="ES" style="font-size:11.0pt;color:black">4 agujas para inyección</span></p><p class="MsoNormal"></p><p class="MsoNormal"></p>
			</div>
		</text>
		
    	    
		
</section>
			    
    	    

			    
		               
<section>
			<title value="5.       FORMA Y VÍA(S) DE ADMINISTRACIÓN"/>
				<code>
					<coding>
						<system value="http://spor.ema.europa.eu/v1/example-sections"/>
						<code value="${document[n].section[n].subsection[n].typeCode}"/>
						<display value="${document[n].section[n].subsection[n].typeDisplay}"/>
					</coding>
				</code>
		<text>
			<status value="additional"/>
			<div xmlns="http://www.w3.org/1999/xhtml">
		    <p class="MsoNormal"></p><p class="MsoNormal"><span lang="ES" style="font-size:11.0pt;color:black">Leer el prospecto antes de utilizar este medicamento.</span></p><p class="MsoNormal"><span lang="ES" style="font-size:11.0pt;color:black">Vía subcutánea.</span></p><p class="MsoNormal"></p><p class="MsoNormal"></p>
			</div>
		</text>
		
    	    
		
</section>
			    
    	    

			    
		               
<section>
			<title value="6.       ADVERTENCIA ESPECIAL DE QUE EL MEDICAMENTO DEBE MANTENERSE FUERA DE LA VISTA Y DEL ALCANCE DE LOS NIÑOS"/>
				<code>
					<coding>
						<system value="http://spor.ema.europa.eu/v1/example-sections"/>
						<code value="${document[n].section[n].subsection[n].typeCode}"/>
						<display value="${document[n].section[n].subsection[n].typeDisplay}"/>
					</coding>
				</code>
		<text>
			<status value="additional"/>
			<div xmlns="http://www.w3.org/1999/xhtml">
		    <p class="MsoNormal"></p><p class="MsoNormal"><span lang="ES" style="font-size:11.0pt;color:black">Mantener fuera de la vista y del alcance de los niños.</span></p><p class="MsoNormal"></p><p class="MsoNormal"></p>
			</div>
		</text>
		
    	    
		
</section>
			    
    	    

			    
		               
<section>
			<title value="7.       OTRA(S) ADVERTENCIA(S) ESPECIAL(ES), SI ES NECESARIO"/>
				<code>
					<coding>
						<system value="http://spor.ema.europa.eu/v1/example-sections"/>
						<code value="${document[n].section[n].subsection[n].typeCode}"/>
						<display value="${document[n].section[n].subsection[n].typeDisplay}"/>
					</coding>
				</code>
		<text>
			<status value="additional"/>
			<div xmlns="http://www.w3.org/1999/xhtml">
		    <p class="MsoNormal"></p><p class="MsoNormal"></p>
			</div>
		</text>
		
    	    
		
</section>
			    
    	    

			    
		               
<section>
			<title value="8.       FECHA DE CADUCIDAD"/>
				<code>
					<coding>
						<system value="http://spor.ema.europa.eu/v1/example-sections"/>
						<code value="${document[n].section[n].subsection[n].typeCode}"/>
						<display value="${document[n].section[n].subsection[n].typeDisplay}"/>
					</coding>
				</code>
		<text>
			<status value="additional"/>
			<div xmlns="http://www.w3.org/1999/xhtml">
		    <p class="MsoNormal" style="page-break-after:avoid"></p><p class="MsoNormal"><span lang="ES" style="font-size:11.0pt;color:black">CAD</span></p><p class="MsoNormal"></p><p class="MsoNormal"></p>
			</div>
		</text>
		
    	    
		
</section>
			    
    	    

			    
		               
<section>
			<title value="9.       CONDICIONES ESPECIALES DE CONSERVACIÓN"/>
				<code>
					<coding>
						<system value="http://spor.ema.europa.eu/v1/example-sections"/>
						<code value="${document[n].section[n].subsection[n].typeCode}"/>
						<display value="${document[n].section[n].subsection[n].typeDisplay}"/>
					</coding>
				</code>
		<text>
			<status value="additional"/>
			<div xmlns="http://www.w3.org/1999/xhtml">
		    <p class="MsoNormal" style="page-break-after:avoid"></p><p class="MsoNormal"><span lang="ES" style="font-size:11.0pt;color:black">Conservar en nevera. No congelar.</span></p><p class="MsoNormal"><span lang="ES" style="font-size:11.0pt;color:black">Conservar en el embalaje original para protegerlo de la luz.</span></p><p class="MsoNormal"><span lang="ES" style="font-size:11.0pt;color:black">Dentro de su periodo de validez, el medicamento puede conservarse a temperatura igual o inferior a 25ºC durante un máximo de 3 meses sin refrigerar y debe desecharse después.</span></p><p class="MsoNormal"><span lang="ES" style="font-size:11.0pt;color:black">Una vez abierto, el medicamento puede conservarse un máximo de 28 días a temperatura igual o inferior a 25ºC.</span></p><p class="MsoNormal"></p><p class="MsoNormal"></p>
			</div>
		</text>
		
    	    
		
</section>
			    
    	    

			    
		               
<section>
			<title value="10.     PRECAUCIONES ESPECIALES DE ELIMINACIÓN DEL MEDICAMENTO NO UTILIZADO Y DE LOS MATERIALES DERIVADOS DE SU USO (CUANDO CORRESPONDA)"/>
				<code>
					<coding>
						<system value="http://spor.ema.europa.eu/v1/example-sections"/>
						<code value="${document[n].section[n].subsection[n].typeCode}"/>
						<display value="${document[n].section[n].subsection[n].typeDisplay}"/>
					</coding>
				</code>
		<text>
			<status value="additional"/>
			<div xmlns="http://www.w3.org/1999/xhtml">
		    <p class="MsoNormal"></p><p class="MsoNormal"><span lang="ES" style="font-size:11.0pt;color:black">La eliminación del medicamento no utilizado y de todos los materiales que hayan estado en contacto con él se realizará de acuerdo con la normativa local.</span></p><p class="MsoNormal"></p><p class="MsoNormal"></p>
			</div>
		</text>
		
    	    
		
</section>
			    
    	    

			    
		               
<section>
			<title value="11.     NOMBRE Y DIRECCIÓN DEL TITULAR DE LA AUTORIZACIÓN DE COMERCIALIZACIÓN"/>
				<code>
					<coding>
						<system value="http://spor.ema.europa.eu/v1/example-sections"/>
						<code value="${document[n].section[n].subsection[n].typeCode}"/>
						<display value="${document[n].section[n].subsection[n].typeDisplay}"/>
					</coding>
				</code>
		<text>
			<status value="additional"/>
			<div xmlns="http://www.w3.org/1999/xhtml">
		    <p class="MsoNormal"></p><p class="Listenabsatz1" style="margin:0in;margin-bottom:.0001pt;line-height: normal;page-break-after:avoid"><span lang="ES" style="font-size:11.0pt">Merck Europe B.V.</span></p><p class="Listenabsatz1" style="margin:0in;margin-bottom:.0001pt;line-height: normal;page-break-after:avoid"><span lang="ES" style="font-size:11.0pt">Gustav Mahlerplein 102</span></p><p class="Listenabsatz1" style="margin:0in;margin-bottom:.0001pt;line-height: normal;page-break-after:avoid"><span lang="ES" style="font-size:11.0pt">1082 MA Amsterdam</span></p><p class="MsoNormal"><span lang="ES" style="font-size:11.0pt">Países Bajos</span></p><p class="MsoNormal"></p><p class="MsoNormal"></p>
			</div>
		</text>
		
    	    
		
</section>
			    
    	    

			    
		               
<section>
			<title value="12.     NÚMERO(S) DE AUTORIZACIÓN DE COMERCIALIZACIÓN"/>
				<code>
					<coding>
						<system value="http://spor.ema.europa.eu/v1/example-sections"/>
						<code value="${document[n].section[n].subsection[n].typeCode}"/>
						<display value="${document[n].section[n].subsection[n].typeDisplay}"/>
					</coding>
				</code>
		<text>
			<status value="additional"/>
			<div xmlns="http://www.w3.org/1999/xhtml">
		    <p class="MsoNormal"></p><p class="MsoNormal"><span lang="ES" style="font-size:11.0pt;color:black">EU/1/95/001/000   <span style="background:#D9D9D9">solución inyectable en pluma precargada</span></span></p><p class="MsoNormal"><span lang="ES" style="font-size:11.0pt;color:black"> <span style="background:#D9D9D9">4 agujas</span></span></p><p class="MsoNormal"></p><p class="MsoNormal"></p>
			</div>
		</text>
		
    	    
		
</section>
			    
    	    

			    
		               
<section>
			<title value="13.     NÚMERO DE LOTE"/>
				<code>
					<coding>
						<system value="http://spor.ema.europa.eu/v1/example-sections"/>
						<code value="${document[n].section[n].subsection[n].typeCode}"/>
						<display value="${document[n].section[n].subsection[n].typeDisplay}"/>
					</coding>
				</code>
		<text>
			<status value="additional"/>
			<div xmlns="http://www.w3.org/1999/xhtml">
		    <p class="MsoNormal"></p><p class="MsoNormal"><span lang="ES" style="font-size:11.0pt;color:black">Lote</span></p><p class="MsoNormal"></p><p class="MsoNormal"></p>
			</div>
		</text>
		
    	    
		
</section>
			    
    	    

			    
		               
<section>
			<title value="14.     CONDICIONES GENERALES DE DISPENSACIÓN"/>
				<code>
					<coding>
						<system value="http://spor.ema.europa.eu/v1/example-sections"/>
						<code value="${document[n].section[n].subsection[n].typeCode}"/>
						<display value="${document[n].section[n].subsection[n].typeDisplay}"/>
					</coding>
				</code>
		<text>
			<status value="additional"/>
			<div xmlns="http://www.w3.org/1999/xhtml">
		    <p class="MsoNormal"></p><p class="MsoNormal"></p>
			</div>
		</text>
		
    	    
		
</section>
			    
    	    

			    
		               
<section>
			<title value="15.     INSTRUCCIONES DE USO"/>
				<code>
					<coding>
						<system value="http://spor.ema.europa.eu/v1/example-sections"/>
						<code value="${document[n].section[n].subsection[n].typeCode}"/>
						<display value="${document[n].section[n].subsection[n].typeDisplay}"/>
					</coding>
				</code>
		<text>
			<status value="additional"/>
			<div xmlns="http://www.w3.org/1999/xhtml">
		    <p class="MsoNormal"></p><p class="MsoNormal"></p>
			</div>
		</text>
		
    	    
		
</section>
			    
    	    

			    
		               
<section>
			<title value="16.     INFORMACIÓN EN BRAILLE"/>
				<code>
					<coding>
						<system value="http://spor.ema.europa.eu/v1/example-sections"/>
						<code value="${document[n].section[n].subsection[n].typeCode}"/>
						<display value="${document[n].section[n].subsection[n].typeDisplay}"/>
					</coding>
				</code>
		<text>
			<status value="additional"/>
			<div xmlns="http://www.w3.org/1999/xhtml">
		    <p class="MsoNormal"></p><p class="MsoNormal"><span lang="PT" style="font-size:11.0pt;color:black">gonal‑f 150 ui/0,25 ml</span></p><p class="MsoNormal"></p><p align="left" class="MsoBodyText" style="text-align:left;page-break-after:auto"></p>
			</div>
		</text>
		
    	    
		
</section>
			    
    	    

			    
		               
<section>
			<title value="17.     IDENTIFICADOR ÚNICO - CÓDIGO DE BARRAS 2D"/>
				<code>
					<coding>
						<system value="http://spor.ema.europa.eu/v1/example-sections"/>
						<code value="${document[n].section[n].subsection[n].typeCode}"/>
						<display value="${document[n].section[n].subsection[n].typeDisplay}"/>
					</coding>
				</code>
		<text>
			<status value="additional"/>
			<div xmlns="http://www.w3.org/1999/xhtml">
		    <p class="MsoNormal" style="page-break-after:avoid"></p><p class="MsoNormal"><span lang="ES" style="font-size:11.0pt;color:black; background:#D9D9D9">Incluido el código de barras 2D que lleva el identificador único.</span></p><p class="MsoNormal"></p><p class="MsoNormal"></p>
			</div>
		</text>
		
    	    
		
</section>
			    
    	    

			    
		               
<section>
			<title value="18.     iDENTIFICADOR ÚNICO - INFORMACIÓN EN CARACTERES VISUALES"/>
				<code>
					<coding>
						<system value="http://spor.ema.europa.eu/v1/example-sections"/>
						<code value="${document[n].section[n].subsection[n].typeCode}"/>
						<display value="${document[n].section[n].subsection[n].typeDisplay}"/>
					</coding>
				</code>
		<text>
			<status value="additional"/>
			<div xmlns="http://www.w3.org/1999/xhtml">
		    <p class="MsoNormal" style="page-break-after:avoid"></p><p class="MsoNormal" style="page-break-after:avoid"><span lang="ES" style="font-size:11.0pt">PC</span></p><p class="MsoNormal" style="page-break-after:avoid"><span lang="ES" style="font-size:11.0pt">SN</span></p><p class="MsoNormal" style="page-break-after:avoid"><span lang="ES" style="font-size:11.0pt">NN</span></p><span lang="ES" style='font-size:11.0pt;font-family:"Times New Roman",serif; color:black;background:#CCCCCC'><br clear="all" style="page-break-before:always"/> </span><br clear="all" style="page-break-before:always"/>
			</div>
		</text>
		
    	    
		
</section>
			    
    	    
		
</section>
			    
    	    
		
	
		
		
    	    
				
			    
						
		               
<section>
			<title value="INFORMACIÓN QUE DEBE INCLUIRSE EN LA PLUMA"/>
				<code>
					<coding>
						<system value="http://spor.ema.europa.eu/v1/example-sections"/>
						<code value="${document[n].section[n].subsection[n].typeCode}"/>
						<display value="${document[n].section[n].subsection[n].typeDisplay}"/>
					</coding>
				</code>
		<text>
			<status value="additional"/>
			<div xmlns="http://www.w3.org/1999/xhtml">
		    <div style="border:solid windowtext 1.0pt;padding:1.0pt 1.0pt 1.0pt 1.0pt"> <p class="MsoNormal" style="page-break-after:avoid;border:none;padding:0in"></p> <p class="MsoNormal" style="page-break-after:avoid;border:none;padding:0in"><b><span lang="ES" style="font-size:11.0pt;color:black">PLUMA DE GONAL‑f 150 UI/0,25 ML, ETIQUETA ADHESIVA</span></b></p> </div><p class="MsoNormal" style="page-break-after:avoid"></p><p class="MsoNormal" style="page-break-after:avoid"><i><span lang="ES" style="font-size:11.0pt;color:black;background:#D9D9D9">Se añadirá una etiqueta adhesiva para que el paciente anote el día de la primera utilización.</span></i></p><p class="MsoNormal" style="page-break-after:avoid"></p><p class="MsoNormal"><span lang="ES"><img border="0" height="170" src="#image0" width="203"/></span></p><span lang="ES" style='font-size:11.0pt;font-family:"Times New Roman",serif; color:black;background:#CCCCCC'><br clear="all" style="page-break-before:always"/> </span><br clear="all" style="page-break-before:always"/>
			</div>
		</text>
		
    	    
		
</section>
			    
    	    
				
			    
						
		               
<section>
			<title value="INFORMACIÓN MÍNIMA QUE DEBE INCLUIRSE EN PEQUEÑOS ACONDICIONAMIENTOS PRIMARIOS  "/>
				<code>
					<coding>
						<system value="http://spor.ema.europa.eu/v1/example-sections"/>
						<code value="${document[n].section[n].subsection[n].typeCode}"/>
						<display value="${document[n].section[n].subsection[n].typeDisplay}"/>
					</coding>
				</code>
		<text>
			<status value="additional"/>
			<div xmlns="http://www.w3.org/1999/xhtml">
		    <div style="border:solid windowtext 1.0pt;padding:1.0pt 4.0pt 1.0pt 4.0pt"> <p class="MsoNormal" style="page-break-after:avoid;border:none;padding:0in"><b><span lang="ES" style="font-size:11.0pt;color:black">PLUMA DE GONAL‑f 150 UI/0,25 ML, ETIQUETA DE LA PLUMA</span></b></p> </div><p class="MsoNormal" style="page-break-after:avoid"></p><p class="MsoNormal" style="page-break-after:avoid"></p>
			</div>
		</text>
		
    	    

			    
		               
<section>
			<title value="1.       NOMBRE DEL MEDICAMENTO Y VÍA(S) DE ADMINISTRACIÓN"/>
				<code>
					<coding>
						<system value="http://spor.ema.europa.eu/v1/example-sections"/>
						<code value="${document[n].section[n].subsection[n].typeCode}"/>
						<display value="${document[n].section[n].subsection[n].typeDisplay}"/>
					</coding>
				</code>
		<text>
			<status value="additional"/>
			<div xmlns="http://www.w3.org/1999/xhtml">
		    <p class="MsoNormal"></p><p class="MsoNormal"><span lang="ES" style="font-size:11.0pt;color:black">GONAL‑f 150 UI/0,25 ml solución inyectable en pluma precargada</span></p><p class="MsoNormal"><span lang="ES" style="font-size:11.0pt;color:black">folitropina alfa</span></p><p class="MsoNormal"><span lang="ES" style="font-size:11.0pt;color:black">Vía subcutánea</span></p><p class="MsoNormal"></p><p class="MsoNormal"></p>
			</div>
		</text>
		
    	    
		
</section>
			    
    	    

			    
		               
<section>
			<title value="2.       FORMA DE ADMINISTRACIÓN"/>
				<code>
					<coding>
						<system value="http://spor.ema.europa.eu/v1/example-sections"/>
						<code value="${document[n].section[n].subsection[n].typeCode}"/>
						<display value="${document[n].section[n].subsection[n].typeDisplay}"/>
					</coding>
				</code>
		<text>
			<status value="additional"/>
			<div xmlns="http://www.w3.org/1999/xhtml">
		    <p class="MsoNormal"></p><p class="MsoNormal"></p>
			</div>
		</text>
		
    	    
		
</section>
			    
    	    

			    
		               
<section>
			<title value="3.       FECHA DE CADUCIDAD"/>
				<code>
					<coding>
						<system value="http://spor.ema.europa.eu/v1/example-sections"/>
						<code value="${document[n].section[n].subsection[n].typeCode}"/>
						<display value="${document[n].section[n].subsection[n].typeDisplay}"/>
					</coding>
				</code>
		<text>
			<status value="additional"/>
			<div xmlns="http://www.w3.org/1999/xhtml">
		    <p class="MsoHeader"></p><p class="MsoNormal"><span lang="ES" style="font-size:11.0pt;color:black">CAD</span></p><p class="MsoNormal"><span lang="ES" style="font-size:11.0pt;color:black">Periodo de validez después de la primera utilización: 28 días</span></p><p class="MsoNormal"></p><p class="MsoNormal"></p>
			</div>
		</text>
		
    	    
		
</section>
			    
    	    

			    
		               
<section>
			<title value="4.       NÚMERO DE LOTE"/>
				<code>
					<coding>
						<system value="http://spor.ema.europa.eu/v1/example-sections"/>
						<code value="${document[n].section[n].subsection[n].typeCode}"/>
						<display value="${document[n].section[n].subsection[n].typeDisplay}"/>
					</coding>
				</code>
		<text>
			<status value="additional"/>
			<div xmlns="http://www.w3.org/1999/xhtml">
		    <p class="MsoNormal" style="margin-left:28.35pt;text-indent:-28.35pt"></p><p class="MsoNormal"><span lang="ES" style="font-size:11.0pt;color:black">Lote</span></p><p class="MsoNormal" style="margin-left:28.35pt;text-indent:-28.35pt"></p><p class="MsoNormal" style="margin-left:28.35pt;text-indent:-28.35pt"></p>
			</div>
		</text>
		
    	    
		
</section>
			    
    	    

			    
		               
<section>
			<title value="5.       CONTENIDO EN PESO, EN VOLUMEN O EN UNIDADES"/>
				<code>
					<coding>
						<system value="http://spor.ema.europa.eu/v1/example-sections"/>
						<code value="${document[n].section[n].subsection[n].typeCode}"/>
						<display value="${document[n].section[n].subsection[n].typeDisplay}"/>
					</coding>
				</code>
		<text>
			<status value="additional"/>
			<div xmlns="http://www.w3.org/1999/xhtml">
		    <p class="MsoNormal"></p><p class="MsoNormal"><span lang="ES" style="font-size:11.0pt;color:black; background:#BFBFBF">150 UI/0,25 ml</span></p><p class="MsoNormal"></p><p class="MsoNormal"></p><div style="border:solid windowtext 1.0pt;padding:1.0pt 4.0pt 1.0pt 4.0pt"> <p class="MsoNormal" style="page-break-after:avoid;border:none;padding:0in"><b><span lang="ES" style="font-size:11.0pt;text-transform:uppercase">6.       otrOS</span></b></p> </div><p class="MsoNormal" style="page-break-after:avoid"></p><p class="MsoNormal"></p><span lang="ES" style='font-size:11.0pt;font-family:"Times New Roman",serif; color:black'><br clear="all" style="page-break-before:always"/> </span><br clear="all" style="page-break-before:always"/>
			</div>
		</text>
		
    	    
		
</section>
			    
    	    
		
</section>
			    
    	    
		
	
		
		
    	    
				
			    
						
		               
<section>
			<title value="INFORMACIÓN QUE DEBE FIGURAR EN EL EMBALAJE EXTERIOR"/>
				<code>
					<coding>
						<system value="http://spor.ema.europa.eu/v1/example-sections"/>
						<code value="${document[n].section[n].subsection[n].typeCode}"/>
						<display value="${document[n].section[n].subsection[n].typeDisplay}"/>
					</coding>
				</code>
		<text>
			<status value="additional"/>
			<div xmlns="http://www.w3.org/1999/xhtml">
		    <div style="border:solid windowtext 1.0pt;padding:1.0pt 4.0pt 1.0pt 4.0pt"> <p class="MsoNormal" style="margin-left:28.35pt;text-indent:-28.35pt;border:none; padding:0in"></p> <p class="MsoNormal" style="margin-left:28.35pt;text-indent:-28.35pt;border:none; padding:0in"><b><span lang="ES" style="font-size:11.0pt;text-transform:uppercase">PLUMA DE Gonal‑</span></b><b><span lang="ES" style="font-size:11.0pt">f<span style="text-transform:uppercase"> 300 UI/0,5 ML, </span><span style="color:black">CAJA DE 1 PLUMA PRECARGADA</span></span></b></p> </div><p class="MsoNormal"></p><p class="MsoNormal"></p>
			</div>
		</text>
		
    	    

			    
		               
<section>
			<title value="1.       NOMBRE DEL MEDICAMENTO"/>
				<code>
					<coding>
						<system value="http://spor.ema.europa.eu/v1/example-sections"/>
						<code value="${document[n].section[n].subsection[n].typeCode}"/>
						<display value="${document[n].section[n].subsection[n].typeDisplay}"/>
					</coding>
				</code>
		<text>
			<status value="additional"/>
			<div xmlns="http://www.w3.org/1999/xhtml">
		    <p class="MsoNormal"></p><p class="MsoNormal"><span lang="ES" style="font-size:11.0pt;color:black">GONAL‑f 300 UI/0,5 ml solución inyectable en pluma precargada</span></p><p class="MsoNormal"><span lang="PT" style="font-size:11.0pt;color:black">folitropina alfa</span></p><p class="MsoNormal"></p><p class="MsoNormal"></p>
			</div>
		</text>
		
    	    
		
</section>
			    
    	    

			    
		               
<section>
			<title value="2.       PRINCIPIO(S) ACTIVO(S)"/>
				<code>
					<coding>
						<system value="http://spor.ema.europa.eu/v1/example-sections"/>
						<code value="${document[n].section[n].subsection[n].typeCode}"/>
						<display value="${document[n].section[n].subsection[n].typeDisplay}"/>
					</coding>
				</code>
		<text>
			<status value="additional"/>
			<div xmlns="http://www.w3.org/1999/xhtml">
		    <p class="MsoNormal"></p><p class="MsoNormal"><span lang="PT" style="font-size:11.0pt;color:black">Cada pluma precargada multidosis proporciona 300 UI de folitropina alfa, equivalente a 22 microgramos, por 0,5 ml.</span></p><p class="MsoNormal"><span lang="PT" style="font-size:11.0pt;color:black">Folitropina alfa, 600 UI/ml (equivalente a 44 microgramos/ml).</span></p><p class="MsoNormal"></p><p class="MsoNormal"></p>
			</div>
		</text>
		
    	    
		
</section>
			    
    	    

			    
		               
<section>
			<title value="3.       LISTA DE EXCIPIENTES"/>
				<code>
					<coding>
						<system value="http://spor.ema.europa.eu/v1/example-sections"/>
						<code value="${document[n].section[n].subsection[n].typeCode}"/>
						<display value="${document[n].section[n].subsection[n].typeDisplay}"/>
					</coding>
				</code>
		<text>
			<status value="additional"/>
			<div xmlns="http://www.w3.org/1999/xhtml">
		    <p class="MsoNormal"></p><p class="MsoNormal"><span lang="PT" style="font-size:11.0pt;color:black">Excipientes: Poloxámero 188, sacarosa, metionina, dihidrogenofosfato de sodio monohidrato, hidrogenofosfato de disodio dihidrato, m‑cresol, ácido fosfórico concentrado, hidróxido de sodio y agua para preparaciones inyectables.</span></p><p class="MsoNormal"></p><p class="MsoNormal"></p>
			</div>
		</text>
		
    	    
		
</section>
			    
    	    

			    
		               
<section>
			<title value="4.       FORMA FARMACÉUTICA Y CONTENIDO DEL ENVASE"/>
				<code>
					<coding>
						<system value="http://spor.ema.europa.eu/v1/example-sections"/>
						<code value="${document[n].section[n].subsection[n].typeCode}"/>
						<display value="${document[n].section[n].subsection[n].typeDisplay}"/>
					</coding>
				</code>
		<text>
			<status value="additional"/>
			<div xmlns="http://www.w3.org/1999/xhtml">
		    <p class="MsoNormal"></p><p class="MsoNormal"><span lang="ES" style="font-size:11.0pt;color:black">Solución inyectable en pluma precargada</span></p><p class="MsoNormal"><span lang="ES" style="font-size:11.0pt;color:black">1 pluma precargada multidosis</span></p><p class="MsoNormal"><span lang="ES" style="font-size:11.0pt;color:black">8 agujas para inyección</span></p><p class="MsoNormal"></p><p class="MsoNormal"></p>
			</div>
		</text>
		
    	    
		
</section>
			    
    	    

			    
		               
<section>
			<title value="5.       FORMA Y VÍA(S) DE ADMINISTRACIÓN"/>
				<code>
					<coding>
						<system value="http://spor.ema.europa.eu/v1/example-sections"/>
						<code value="${document[n].section[n].subsection[n].typeCode}"/>
						<display value="${document[n].section[n].subsection[n].typeDisplay}"/>
					</coding>
				</code>
		<text>
			<status value="additional"/>
			<div xmlns="http://www.w3.org/1999/xhtml">
		    <p class="MsoNormal"></p><p class="MsoNormal"><span lang="ES" style="font-size:11.0pt;color:black">Leer el prospecto antes de utilizar este medicamento.</span></p><p class="MsoNormal"><span lang="ES" style="font-size:11.0pt;color:black">Vía subcutánea.</span></p><p class="MsoNormal"></p><p class="MsoNormal"></p>
			</div>
		</text>
		
    	    
		
</section>
			    
    	    

			    
		               
<section>
			<title value="6.       ADVERTENCIA ESPECIAL DE QUE EL MEDICAMENTO DEBE MANTENERSE FUERA DE LA VISTA Y DEL ALCANCE DE LOS NIÑOS"/>
				<code>
					<coding>
						<system value="http://spor.ema.europa.eu/v1/example-sections"/>
						<code value="${document[n].section[n].subsection[n].typeCode}"/>
						<display value="${document[n].section[n].subsection[n].typeDisplay}"/>
					</coding>
				</code>
		<text>
			<status value="additional"/>
			<div xmlns="http://www.w3.org/1999/xhtml">
		    <p class="MsoNormal"></p><p class="MsoNormal"><span lang="ES" style="font-size:11.0pt;color:black">Mantener fuera de la vista y del alcance de los niños.</span></p><p class="MsoNormal"></p><p class="MsoNormal"></p>
			</div>
		</text>
		
    	    
		
</section>
			    
    	    

			    
		               
<section>
			<title value="7.       OTRA(S) ADVERTENCIA(S) ESPECIAL(ES), SI ES NECESARIO"/>
				<code>
					<coding>
						<system value="http://spor.ema.europa.eu/v1/example-sections"/>
						<code value="${document[n].section[n].subsection[n].typeCode}"/>
						<display value="${document[n].section[n].subsection[n].typeDisplay}"/>
					</coding>
				</code>
		<text>
			<status value="additional"/>
			<div xmlns="http://www.w3.org/1999/xhtml">
		    <p class="MsoNormal"></p><p class="MsoNormal"></p>
			</div>
		</text>
		
    	    
		
</section>
			    
    	    

			    
		               
<section>
			<title value="8.       FECHA DE CADUCIDAD"/>
				<code>
					<coding>
						<system value="http://spor.ema.europa.eu/v1/example-sections"/>
						<code value="${document[n].section[n].subsection[n].typeCode}"/>
						<display value="${document[n].section[n].subsection[n].typeDisplay}"/>
					</coding>
				</code>
		<text>
			<status value="additional"/>
			<div xmlns="http://www.w3.org/1999/xhtml">
		    <p class="MsoNormal" style="page-break-after:avoid"></p><p class="MsoNormal"><span lang="ES" style="font-size:11.0pt;color:black">CAD</span></p><p class="MsoNormal"></p><p class="MsoNormal"></p>
			</div>
		</text>
		
    	    
		
</section>
			    
    	    

			    
		               
<section>
			<title value="9.       CONDICIONES ESPECIALES DE CONSERVACIÓN"/>
				<code>
					<coding>
						<system value="http://spor.ema.europa.eu/v1/example-sections"/>
						<code value="${document[n].section[n].subsection[n].typeCode}"/>
						<display value="${document[n].section[n].subsection[n].typeDisplay}"/>
					</coding>
				</code>
		<text>
			<status value="additional"/>
			<div xmlns="http://www.w3.org/1999/xhtml">
		    <p class="MsoNormal" style="page-break-after:avoid"></p><p class="MsoNormal"><span lang="ES" style="font-size:11.0pt;color:black">Conservar en nevera. No congelar.</span></p><p class="MsoNormal"><span lang="ES" style="font-size:11.0pt;color:black">Conservar en el embalaje original para protegerlo de la luz.</span></p><p class="MsoNormal"><span lang="ES" style="font-size:11.0pt;color:black">Dentro de su periodo de validez, el medicamento puede conservarse a temperatura igual o inferior a 25ºC durante un máximo de 3 meses sin refrigerar y debe desecharse después.</span></p><p class="MsoNormal"><span lang="ES" style="font-size:11.0pt;color:black">Una vez abierto, el medicamento puede conservarse un máximo de 28 días a temperatura igual o inferior a 25ºC.</span></p><p class="MsoNormal"></p><p class="MsoNormal"></p>
			</div>
		</text>
		
    	    
		
</section>
			    
    	    

			    
		               
<section>
			<title value="10.     PRECAUCIONES ESPECIALES DE ELIMINACIÓN DEL MEDICAMENTO NO UTILIZADO Y DE LOS MATERIALES DERIVADOS DE SU USO (CUANDO CORRESPONDA)"/>
				<code>
					<coding>
						<system value="http://spor.ema.europa.eu/v1/example-sections"/>
						<code value="${document[n].section[n].subsection[n].typeCode}"/>
						<display value="${document[n].section[n].subsection[n].typeDisplay}"/>
					</coding>
				</code>
		<text>
			<status value="additional"/>
			<div xmlns="http://www.w3.org/1999/xhtml">
		    <p class="MsoNormal"></p><p class="MsoNormal"><span lang="ES" style="font-size:11.0pt;color:black">La eliminación del medicamento no utilizado y de todos los materiales que hayan estado en contacto con él se realizará de acuerdo con la normativa local.</span></p><p class="MsoNormal"></p><p class="MsoNormal"></p>
			</div>
		</text>
		
    	    
		
</section>
			    
    	    

			    
		               
<section>
			<title value="11.     NOMBRE Y DIRECCIÓN DEL TITULAR DE LA AUTORIZACIÓN DE COMERCIALIZACIÓN"/>
				<code>
					<coding>
						<system value="http://spor.ema.europa.eu/v1/example-sections"/>
						<code value="${document[n].section[n].subsection[n].typeCode}"/>
						<display value="${document[n].section[n].subsection[n].typeDisplay}"/>
					</coding>
				</code>
		<text>
			<status value="additional"/>
			<div xmlns="http://www.w3.org/1999/xhtml">
		    <p class="MsoNormal"></p><p class="Listenabsatz1" style="margin:0in;margin-bottom:.0001pt;line-height: normal;page-break-after:avoid"><span lang="ES" style="font-size:11.0pt">Merck Europe B.V.</span></p><p class="Listenabsatz1" style="margin:0in;margin-bottom:.0001pt;line-height: normal;page-break-after:avoid"><span lang="ES" style="font-size:11.0pt">Gustav Mahlerplein 102</span></p><p class="Listenabsatz1" style="margin:0in;margin-bottom:.0001pt;line-height: normal;page-break-after:avoid"><span lang="ES" style="font-size:11.0pt">1082 MA Amsterdam</span></p><p class="MsoNormal"><span lang="ES" style="font-size:11.0pt">Países Bajos</span></p><p class="MsoNormal"></p><p class="MsoNormal"></p>
			</div>
		</text>
		
    	    
		
</section>
			    
    	    

			    
		               
<section>
			<title value="12.     NÚMERO(S) DE AUTORIZACIÓN DE COMERCIALIZACIÓN"/>
				<code>
					<coding>
						<system value="http://spor.ema.europa.eu/v1/example-sections"/>
						<code value="${document[n].section[n].subsection[n].typeCode}"/>
						<display value="${document[n].section[n].subsection[n].typeDisplay}"/>
					</coding>
				</code>
		<text>
			<status value="additional"/>
			<div xmlns="http://www.w3.org/1999/xhtml">
		    <p class="MsoNormal"></p><p class="MsoNormal"><span lang="ES" style="font-size:11.0pt;color:black">EU/1/95/001/033   <span style="background:#D9D9D9">solución inyectable en pluma precargada</span></span></p><p class="MsoNormal"><span lang="ES" style="font-size:11.0pt;color:black"> <span style="background:#D9D9D9">8 agujas</span></span></p><p class="MsoNormal"></p><p class="MsoNormal"></p>
			</div>
		</text>
		
    	    
		
</section>
			    
    	    

			    
		               
<section>
			<title value="13.     NÚMERO DE LOTE"/>
				<code>
					<coding>
						<system value="http://spor.ema.europa.eu/v1/example-sections"/>
						<code value="${document[n].section[n].subsection[n].typeCode}"/>
						<display value="${document[n].section[n].subsection[n].typeDisplay}"/>
					</coding>
				</code>
		<text>
			<status value="additional"/>
			<div xmlns="http://www.w3.org/1999/xhtml">
		    <p class="MsoNormal"></p><p class="MsoNormal"><span lang="ES" style="font-size:11.0pt;color:black">Lote</span></p><p class="MsoNormal"></p><p class="MsoNormal"></p>
			</div>
		</text>
		
    	    
		
</section>
			    
    	    

			    
		               
<section>
			<title value="14.     CONDICIONES GENERALES DE DISPENSACIÓN"/>
				<code>
					<coding>
						<system value="http://spor.ema.europa.eu/v1/example-sections"/>
						<code value="${document[n].section[n].subsection[n].typeCode}"/>
						<display value="${document[n].section[n].subsection[n].typeDisplay}"/>
					</coding>
				</code>
		<text>
			<status value="additional"/>
			<div xmlns="http://www.w3.org/1999/xhtml">
		    <p class="MsoNormal"></p><p class="MsoNormal"></p>
			</div>
		</text>
		
    	    
		
</section>
			    
    	    

			    
		               
<section>
			<title value="15.     INSTRUCCIONES DE USO"/>
				<code>
					<coding>
						<system value="http://spor.ema.europa.eu/v1/example-sections"/>
						<code value="${document[n].section[n].subsection[n].typeCode}"/>
						<display value="${document[n].section[n].subsection[n].typeDisplay}"/>
					</coding>
				</code>
		<text>
			<status value="additional"/>
			<div xmlns="http://www.w3.org/1999/xhtml">
		    <p class="MsoNormal"></p><p class="MsoNormal"></p>
			</div>
		</text>
		
    	    
		
</section>
			    
    	    

			    
		               
<section>
			<title value="16.     INFORMACIÓN EN BRAILLE"/>
				<code>
					<coding>
						<system value="http://spor.ema.europa.eu/v1/example-sections"/>
						<code value="${document[n].section[n].subsection[n].typeCode}"/>
						<display value="${document[n].section[n].subsection[n].typeDisplay}"/>
					</coding>
				</code>
		<text>
			<status value="additional"/>
			<div xmlns="http://www.w3.org/1999/xhtml">
		    <p class="MsoNormal"></p><p class="MsoNormal"><span lang="PT" style="font-size:11.0pt;color:black">gonal‑f 300 ui/0,5 ml</span></p><p class="MsoNormal"></p><p align="left" class="MsoBodyText" style="text-align:left;page-break-after:auto"></p>
			</div>
		</text>
		
    	    
		
</section>
			    
    	    

			    
		               
<section>
			<title value="17.     IDENTIFICADOR ÚNICO - CÓDIGO DE BARRAS 2D"/>
				<code>
					<coding>
						<system value="http://spor.ema.europa.eu/v1/example-sections"/>
						<code value="${document[n].section[n].subsection[n].typeCode}"/>
						<display value="${document[n].section[n].subsection[n].typeDisplay}"/>
					</coding>
				</code>
		<text>
			<status value="additional"/>
			<div xmlns="http://www.w3.org/1999/xhtml">
		    <p class="MsoNormal" style="page-break-after:avoid"></p><p class="MsoNormal"><span lang="ES" style="font-size:11.0pt;color:black; background:#D9D9D9">Incluido el código de barras 2D que lleva el identificador único.</span></p><p class="MsoNormal"></p><p class="MsoNormal"></p>
			</div>
		</text>
		
    	    
		
</section>
			    
    	    

			    
		               
<section>
			<title value="18.     iDENTIFICADOR ÚNICO - INFORMACIÓN EN CARACTERES VISUALES"/>
				<code>
					<coding>
						<system value="http://spor.ema.europa.eu/v1/example-sections"/>
						<code value="${document[n].section[n].subsection[n].typeCode}"/>
						<display value="${document[n].section[n].subsection[n].typeDisplay}"/>
					</coding>
				</code>
		<text>
			<status value="additional"/>
			<div xmlns="http://www.w3.org/1999/xhtml">
		    <p class="MsoNormal" style="page-break-after:avoid"></p><p class="MsoNormal"><span lang="ES" style="font-size:11.0pt">PC</span></p><p class="MsoNormal"><span lang="ES" style="font-size:11.0pt">SN</span></p><p class="MsoNormal"><span lang="ES" style="font-size:11.0pt">NN</span></p><p class="MsoNormal"></p><span lang="ES" style='font-size:11.0pt;font-family:"Times New Roman",serif; color:black'><br clear="all" style="page-break-before:always"/> </span><br clear="all" style="page-break-before:always"/>
			</div>
		</text>
		
    	    
		
</section>
			    
    	    
		
</section>
			    
    	    
		
	
		
		
    	    
				
			    
						
		               
<section>
			<title value="INFORMACIÓN QUE DEBE INCLUIRSE EN LA PLUMA"/>
				<code>
					<coding>
						<system value="http://spor.ema.europa.eu/v1/example-sections"/>
						<code value="${document[n].section[n].subsection[n].typeCode}"/>
						<display value="${document[n].section[n].subsection[n].typeDisplay}"/>
					</coding>
				</code>
		<text>
			<status value="additional"/>
			<div xmlns="http://www.w3.org/1999/xhtml">
		    <div style="border:solid windowtext 1.0pt;padding:2.0pt 4.0pt 1.0pt 4.0pt"> <p class="MsoNormal" style="margin-left:28.35pt;text-indent:-28.35pt;border:none; padding:0in"></p> <p class="MsoNormal" style="margin-left:28.35pt;text-indent:-28.35pt;border:none; padding:0in"><b><span lang="ES" style="font-size:11.0pt;color:black">PLUMA DE GONAL‑f 300 UI/0,5 ML, ETIQUETA ADHESIVA</span></b></p> </div><p class="MsoNormal"></p><p class="MsoHeader"><i><span lang="ES" style="font-size:11.0pt;color:black; background:#D9D9D9">Se añadirá una etiqueta adhesiva para que el paciente anote el día de la primera utilización.</span></i></p><p class="MsoNormal" style="page-break-after:avoid"></p><p class="MsoNormal" style="page-break-after:avoid"><span lang="ES"><img border="0" height="170" src="#image1" width="203"/></span></p><i><span lang="ES" style='font-size:11.0pt;font-family:"Times New Roman",serif; color:black'><br clear="all" style="page-break-before:always"/> </span></i><span lang="ES" style='font-size:11.0pt;font-family:"Times New Roman",serif; color:black'><br clear="all" style="page-break-before:always"/> </span><br clear="all" style="page-break-before:always"/>
			</div>
		</text>
		
    	    
		
</section>
			    
    	    
				
			    
						
		               
<section>
			<title value="INFORMACIÓN MÍNIMA QUE DEBE INCLUIRSE EN PEQUEÑOS ACONDICIONAMIENTOS PRIMARIOS"/>
				<code>
					<coding>
						<system value="http://spor.ema.europa.eu/v1/example-sections"/>
						<code value="${document[n].section[n].subsection[n].typeCode}"/>
						<display value="${document[n].section[n].subsection[n].typeDisplay}"/>
					</coding>
				</code>
		<text>
			<status value="additional"/>
			<div xmlns="http://www.w3.org/1999/xhtml">
		    <div style="border:solid windowtext 1.0pt;padding:2.0pt 4.0pt 1.0pt 4.0pt"> <p class="MsoNormal" style="border:none;padding:0in"></p> <p class="MsoNormal" style="border:none;padding:0in"><b><span lang="ES" style="font-size:11.0pt;color:black">PLUMA DE GONAL‑f 300 UI/0,5 ML, ETIQUETA DE LA PLUMA</span></b></p> </div><p class="MsoNormal"></p><p class="MsoNormal"></p>
			</div>
		</text>
		
    	    

			    
		               
<section>
			<title value="1.       NOMBRE DEL MEDICAMENTO Y VÍA(S) DE ADMINISTRACIÓN"/>
				<code>
					<coding>
						<system value="http://spor.ema.europa.eu/v1/example-sections"/>
						<code value="${document[n].section[n].subsection[n].typeCode}"/>
						<display value="${document[n].section[n].subsection[n].typeDisplay}"/>
					</coding>
				</code>
		<text>
			<status value="additional"/>
			<div xmlns="http://www.w3.org/1999/xhtml">
		    <p class="MsoNormal"></p><p class="MsoNormal"><span lang="ES" style="font-size:11.0pt;color:black">GONAL‑f 300 UI/0,5 ml solución inyectable en pluma precargada</span></p><p class="MsoNormal"><span lang="ES" style="font-size:11.0pt;color:black">folitropina alfa</span></p><p class="MsoNormal"><span lang="ES" style="font-size:11.0pt;color:black">Vía subcutánea</span></p><p class="MsoNormal"></p><p class="MsoNormal"></p>
			</div>
		</text>
		
    	    
		
</section>
			    
    	    

			    
		               
<section>
			<title value="2.       FORMA DE ADMINISTRACIÓN"/>
				<code>
					<coding>
						<system value="http://spor.ema.europa.eu/v1/example-sections"/>
						<code value="${document[n].section[n].subsection[n].typeCode}"/>
						<display value="${document[n].section[n].subsection[n].typeDisplay}"/>
					</coding>
				</code>
		<text>
			<status value="additional"/>
			<div xmlns="http://www.w3.org/1999/xhtml">
		    <p class="MsoNormal"></p><p class="MsoNormal"></p>
			</div>
		</text>
		
    	    
		
</section>
			    
    	    

			    
		               
<section>
			<title value="3.       FECHA DE CADUCIDAD"/>
				<code>
					<coding>
						<system value="http://spor.ema.europa.eu/v1/example-sections"/>
						<code value="${document[n].section[n].subsection[n].typeCode}"/>
						<display value="${document[n].section[n].subsection[n].typeDisplay}"/>
					</coding>
				</code>
		<text>
			<status value="additional"/>
			<div xmlns="http://www.w3.org/1999/xhtml">
		    <p class="MsoHeader"></p><p class="MsoNormal"><span lang="ES" style="font-size:11.0pt;color:black">CAD</span></p><p class="MsoNormal"><span lang="ES" style="font-size:11.0pt;color:black">Periodo de validez después de la primera utilización: 28 días</span></p><p class="MsoNormal"></p><p class="MsoNormal"></p>
			</div>
		</text>
		
    	    
		
</section>
			    
    	    

			    
		               
<section>
			<title value="4.       NÚMERO DE LOTE"/>
				<code>
					<coding>
						<system value="http://spor.ema.europa.eu/v1/example-sections"/>
						<code value="${document[n].section[n].subsection[n].typeCode}"/>
						<display value="${document[n].section[n].subsection[n].typeDisplay}"/>
					</coding>
				</code>
		<text>
			<status value="additional"/>
			<div xmlns="http://www.w3.org/1999/xhtml">
		    <p class="MsoNormal" style="margin-left:28.35pt;text-indent:-28.35pt"></p><p class="MsoNormal"><span lang="ES" style="font-size:11.0pt;color:black">Lote</span></p><p class="MsoNormal" style="margin-left:28.35pt;text-indent:-28.35pt"></p><p class="MsoNormal" style="margin-left:28.35pt;text-indent:-28.35pt"></p>
			</div>
		</text>
		
    	    
		
</section>
			    
    	    

			    
		               
<section>
			<title value="5.       CONTENIDO EN PESO, EN VOLUMEN O EN UNIDADES"/>
				<code>
					<coding>
						<system value="http://spor.ema.europa.eu/v1/example-sections"/>
						<code value="${document[n].section[n].subsection[n].typeCode}"/>
						<display value="${document[n].section[n].subsection[n].typeDisplay}"/>
					</coding>
				</code>
		<text>
			<status value="additional"/>
			<div xmlns="http://www.w3.org/1999/xhtml">
		    <p class="MsoNormal"></p><p class="MsoNormal"><span lang="ES" style="font-size:11.0pt;color:black; background:#BFBFBF">300 UI/0,5 ml</span></p><p class="MsoNormal"></p><p class="MsoNormal"></p>
			</div>
		</text>
		
    	    
		
</section>
			    
    	    

			    
		               
<section>
			<title value="6.       OTROS"/>
				<code>
					<coding>
						<system value="http://spor.ema.europa.eu/v1/example-sections"/>
						<code value="${document[n].section[n].subsection[n].typeCode}"/>
						<display value="${document[n].section[n].subsection[n].typeDisplay}"/>
					</coding>
				</code>
		<text>
			<status value="additional"/>
			<div xmlns="http://www.w3.org/1999/xhtml">
		    <p class="MsoNormal"></p><span lang="ES" style='font-size:11.0pt;font-family:"Times New Roman",serif; color:black'><br clear="all" style="page-break-before:always"/> </span><br clear="all" style="page-break-before:always"/>
			</div>
		</text>
		
    	    
		
</section>
			    
    	    
		
</section>
			    
    	    
		
	
		
		
    	    
				
			    
						
		               
<section>
			<title value="INFORMACIÓN QUE DEBE FIGURAR EN EL EMBALAJE EXTERIOR"/>
				<code>
					<coding>
						<system value="http://spor.ema.europa.eu/v1/example-sections"/>
						<code value="${document[n].section[n].subsection[n].typeCode}"/>
						<display value="${document[n].section[n].subsection[n].typeDisplay}"/>
					</coding>
				</code>
		<text>
			<status value="additional"/>
			<div xmlns="http://www.w3.org/1999/xhtml">
		    <div style="border:solid windowtext 1.0pt;padding:1.0pt 4.0pt 1.0pt 4.0pt"> <p class="MsoNormal" style="margin-left:28.35pt;text-indent:-28.35pt;border:none; padding:0in"></p> <p class="MsoNormal" style="margin-left:28.35pt;text-indent:-28.35pt;border:none; padding:0in"><b><span lang="ES" style="font-size:11.0pt;text-transform:uppercase">Gonal‑</span></b><b><span lang="ES" style="font-size:11.0pt">f<span style="text-transform:uppercase"> 450 UI/0,75 ML, </span><span style="color:black">CAJA DE 1 PLUMA PRECARGADA</span></span></b></p> </div><p class="MsoNormal"></p><p class="MsoNormal"></p>
			</div>
		</text>
		
    	    

			    
		               
<section>
			<title value="1.       NOMBRE DEL MEDICAMENTO"/>
				<code>
					<coding>
						<system value="http://spor.ema.europa.eu/v1/example-sections"/>
						<code value="${document[n].section[n].subsection[n].typeCode}"/>
						<display value="${document[n].section[n].subsection[n].typeDisplay}"/>
					</coding>
				</code>
		<text>
			<status value="additional"/>
			<div xmlns="http://www.w3.org/1999/xhtml">
		    <p class="MsoNormal"></p><p class="MsoNormal"><span lang="ES" style="font-size:11.0pt;color:black">GONAL‑f 450 UI/0,75 ml solución inyectable en pluma precargada</span></p><p class="MsoNormal"><span lang="PT" style="font-size:11.0pt;color:black">folitropina alfa</span></p><p class="MsoNormal"></p><p class="MsoNormal"></p>
			</div>
		</text>
		
    	    
		
</section>
			    
    	    

			    
		               
<section>
			<title value="2.       PRINCIPIO(S) ACTIVO(S)"/>
				<code>
					<coding>
						<system value="http://spor.ema.europa.eu/v1/example-sections"/>
						<code value="${document[n].section[n].subsection[n].typeCode}"/>
						<display value="${document[n].section[n].subsection[n].typeDisplay}"/>
					</coding>
				</code>
		<text>
			<status value="additional"/>
			<div xmlns="http://www.w3.org/1999/xhtml">
		    <p class="MsoNormal"></p><p class="MsoNormal"><span lang="PT" style="font-size:11.0pt;color:black">Cada pluma precargada multidosis proporciona 450 UI de folitropina alfa, equivalente a 33 microgramos, por 0,75 ml.</span></p><p class="MsoNormal"><span lang="PT" style="font-size:11.0pt;color:black">Folitropina alfa, 600 UI/ml (equivalente a 44 microgramos/ml).</span></p><p class="MsoNormal"></p><p class="MsoNormal"></p>
			</div>
		</text>
		
    	    
		
</section>
			    
    	    

			    
		               
<section>
			<title value="3.       LISTA DE EXCIPIENTES"/>
				<code>
					<coding>
						<system value="http://spor.ema.europa.eu/v1/example-sections"/>
						<code value="${document[n].section[n].subsection[n].typeCode}"/>
						<display value="${document[n].section[n].subsection[n].typeDisplay}"/>
					</coding>
				</code>
		<text>
			<status value="additional"/>
			<div xmlns="http://www.w3.org/1999/xhtml">
		    <p class="MsoNormal"></p><p class="MsoNormal"><span lang="PT" style="font-size:11.0pt;color:black">Excipientes: Poloxámero 188, sacarosa, metionina, dihidrogenofosfato de sodio monohidrato, hidrogenofosfato de disodio dihidrato, m‑cresol, ácido fosfórico concentrado, hidróxido de sodio y agua para preparaciones inyectables.</span></p><p class="MsoNormal"></p><p class="MsoNormal"></p>
			</div>
		</text>
		
    	    
		
</section>
			    
    	    

			    
		               
<section>
			<title value="4.       FORMA FARMACÉUTICA Y CONTENIDO DEL ENVASE"/>
				<code>
					<coding>
						<system value="http://spor.ema.europa.eu/v1/example-sections"/>
						<code value="${document[n].section[n].subsection[n].typeCode}"/>
						<display value="${document[n].section[n].subsection[n].typeDisplay}"/>
					</coding>
				</code>
		<text>
			<status value="additional"/>
			<div xmlns="http://www.w3.org/1999/xhtml">
		    <p class="MsoNormal"></p><p class="MsoNormal"><span lang="ES" style="font-size:11.0pt;color:black">Solución inyectable en pluma precargada.</span></p><p class="MsoNormal"><span lang="ES" style="font-size:11.0pt;color:black">1 pluma precargada multidosis</span></p><p class="MsoNormal"><span lang="ES" style="font-size:11.0pt;color:black">12 agujas para inyección</span></p><p class="MsoNormal"></p><p class="MsoNormal"></p>
			</div>
		</text>
		
    	    
		
</section>
			    
    	    

			    
		               
<section>
			<title value="5.       FORMA Y VÍA(S) DE ADMINISTRACIÓN"/>
				<code>
					<coding>
						<system value="http://spor.ema.europa.eu/v1/example-sections"/>
						<code value="${document[n].section[n].subsection[n].typeCode}"/>
						<display value="${document[n].section[n].subsection[n].typeDisplay}"/>
					</coding>
				</code>
		<text>
			<status value="additional"/>
			<div xmlns="http://www.w3.org/1999/xhtml">
		    <p class="MsoNormal"></p><p class="MsoNormal"><span lang="ES" style="font-size:11.0pt;color:black">Leer el prospecto antes de utilizar este medicamento.</span></p><p class="MsoNormal"><span lang="ES" style="font-size:11.0pt;color:black">Vía subcutánea.</span></p><p class="MsoNormal"></p><p class="MsoNormal"></p>
			</div>
		</text>
		
    	    
		
</section>
			    
    	    

			    
		               
<section>
			<title value="6.       ADVERTENCIA ESPECIAL DE QUE EL MEDICAMENTO DEBE MANTENERSE FUERA DE LA VISTA Y DEL ALCANCE DE LOS NIÑOS"/>
				<code>
					<coding>
						<system value="http://spor.ema.europa.eu/v1/example-sections"/>
						<code value="${document[n].section[n].subsection[n].typeCode}"/>
						<display value="${document[n].section[n].subsection[n].typeDisplay}"/>
					</coding>
				</code>
		<text>
			<status value="additional"/>
			<div xmlns="http://www.w3.org/1999/xhtml">
		    <p class="MsoNormal"></p><p class="MsoNormal"><span lang="ES" style="font-size:11.0pt;color:black">Mantener fuera de la vista y del alcance de los niños.</span></p><p class="MsoNormal"></p><p class="MsoNormal"></p>
			</div>
		</text>
		
    	    
		
</section>
			    
    	    

			    
		               
<section>
			<title value="7.       OTRA(S) ADVERTENCIA(S) ESPECIAL(ES), SI ES NECESARIO"/>
				<code>
					<coding>
						<system value="http://spor.ema.europa.eu/v1/example-sections"/>
						<code value="${document[n].section[n].subsection[n].typeCode}"/>
						<display value="${document[n].section[n].subsection[n].typeDisplay}"/>
					</coding>
				</code>
		<text>
			<status value="additional"/>
			<div xmlns="http://www.w3.org/1999/xhtml">
		    <p class="MsoNormal"></p><p class="MsoNormal"></p>
			</div>
		</text>
		
    	    
		
</section>
			    
    	    

			    
		               
<section>
			<title value="8.       FECHA DE CADUCIDAD"/>
				<code>
					<coding>
						<system value="http://spor.ema.europa.eu/v1/example-sections"/>
						<code value="${document[n].section[n].subsection[n].typeCode}"/>
						<display value="${document[n].section[n].subsection[n].typeDisplay}"/>
					</coding>
				</code>
		<text>
			<status value="additional"/>
			<div xmlns="http://www.w3.org/1999/xhtml">
		    <p class="MsoNormal" style="page-break-after:avoid"></p><p class="MsoNormal"><span lang="ES" style="font-size:11.0pt;color:black">CAD</span></p><p class="MsoNormal"></p><p class="MsoNormal"></p>
			</div>
		</text>
		
    	    
		
</section>
			    
    	    

			    
		               
<section>
			<title value="9.       CONDICIONES ESPECIALES DE CONSERVACIÓN"/>
				<code>
					<coding>
						<system value="http://spor.ema.europa.eu/v1/example-sections"/>
						<code value="${document[n].section[n].subsection[n].typeCode}"/>
						<display value="${document[n].section[n].subsection[n].typeDisplay}"/>
					</coding>
				</code>
		<text>
			<status value="additional"/>
			<div xmlns="http://www.w3.org/1999/xhtml">
		    <p class="MsoNormal" style="page-break-after:avoid"></p><p class="MsoNormal"><span lang="ES" style="font-size:11.0pt;color:black">Conservar en nevera. No congelar.</span></p><p class="MsoNormal"><span lang="ES" style="font-size:11.0pt;color:black">Conservar en el embalaje original para protegerlo de la luz.</span></p><p class="MsoNormal"><span lang="ES" style="font-size:11.0pt;color:black">Dentro de su periodo de validez, el medicamento puede conservarse a temperatura igual o inferior a 25ºC durante un máximo de 3 meses sin refrigerar y debe desecharse después.</span></p><p class="MsoNormal"><span lang="ES" style="font-size:11.0pt;color:black">Una vez abierto, el medicamento puede conservarse un máximo de 28 días a temperatura igual o inferior a 25ºC.</span></p><p class="MsoNormal"></p><p class="MsoNormal"></p>
			</div>
		</text>
		
    	    
		
</section>
			    
    	    

			    
		               
<section>
			<title value="10.     PRECAUCIONES ESPECIALES DE ELIMINACIÓN DEL MEDICAMENTO NO UTILIZADO Y DE LOS MATERIALES DERIVADOS DE SU USO (CUANDO CORRESPONDA)"/>
				<code>
					<coding>
						<system value="http://spor.ema.europa.eu/v1/example-sections"/>
						<code value="${document[n].section[n].subsection[n].typeCode}"/>
						<display value="${document[n].section[n].subsection[n].typeDisplay}"/>
					</coding>
				</code>
		<text>
			<status value="additional"/>
			<div xmlns="http://www.w3.org/1999/xhtml">
		    <p class="MsoNormal"></p><p class="MsoNormal"><span lang="ES" style="font-size:11.0pt;color:black">La eliminación del medicamento no utilizado y de todos los materiales que hayan estado en contacto con él se realizará de acuerdo con la normativa local.</span></p><p class="MsoNormal"></p><p class="MsoNormal"></p>
			</div>
		</text>
		
    	    
		
</section>
			    
    	    

			    
		               
<section>
			<title value="11.     NOMBRE Y DIRECCIÓN DEL TITULAR DE LA AUTORIZACIÓN DE COMERCIALIZACIÓN"/>
				<code>
					<coding>
						<system value="http://spor.ema.europa.eu/v1/example-sections"/>
						<code value="${document[n].section[n].subsection[n].typeCode}"/>
						<display value="${document[n].section[n].subsection[n].typeDisplay}"/>
					</coding>
				</code>
		<text>
			<status value="additional"/>
			<div xmlns="http://www.w3.org/1999/xhtml">
		    <p class="MsoNormal"></p><p class="Listenabsatz1" style="margin:0in;margin-bottom:.0001pt;line-height: normal;page-break-after:avoid"><span lang="ES" style="font-size:11.0pt">Merck Europe B.V.</span></p><p class="Listenabsatz1" style="margin:0in;margin-bottom:.0001pt;line-height: normal;page-break-after:avoid"><span lang="ES" style="font-size:11.0pt">Gustav Mahlerplein 102</span></p><p class="Listenabsatz1" style="margin:0in;margin-bottom:.0001pt;line-height: normal;page-break-after:avoid"><span lang="ES" style="font-size:11.0pt">1082 MA Amsterdam</span></p><p class="MsoNormal"><span lang="ES" style="font-size:11.0pt">Países Bajos</span></p><p class="MsoNormal"></p><p class="MsoNormal"></p>
			</div>
		</text>
		
    	    
		
</section>
			    
    	    

			    
		               
<section>
			<title value="12.     NÚMERO(S) DE AUTORIZACIÓN DE COMERCIALIZACIÓN"/>
				<code>
					<coding>
						<system value="http://spor.ema.europa.eu/v1/example-sections"/>
						<code value="${document[n].section[n].subsection[n].typeCode}"/>
						<display value="${document[n].section[n].subsection[n].typeDisplay}"/>
					</coding>
				</code>
		<text>
			<status value="additional"/>
			<div xmlns="http://www.w3.org/1999/xhtml">
		    <p class="MsoNormal"></p><p class="MsoNormal"><span lang="ES" style="font-size:11.0pt;color:black">EU/1/95/001/034   <span style="background:#D9D9D9">solución inyectable en pluma precargada</span></span></p><p class="MsoNormal"><span lang="ES" style="font-size:11.0pt;color:black"> <span style="background:#D9D9D9">12 agujas</span></span></p><p class="MsoNormal"></p><p class="MsoNormal"></p>
			</div>
		</text>
		
    	    
		
</section>
			    
    	    

			    
		               
<section>
			<title value="13.     NÚMERO DE LOTE"/>
				<code>
					<coding>
						<system value="http://spor.ema.europa.eu/v1/example-sections"/>
						<code value="${document[n].section[n].subsection[n].typeCode}"/>
						<display value="${document[n].section[n].subsection[n].typeDisplay}"/>
					</coding>
				</code>
		<text>
			<status value="additional"/>
			<div xmlns="http://www.w3.org/1999/xhtml">
		    <p class="MsoNormal"></p><p class="MsoNormal"><span lang="ES" style="font-size:11.0pt;color:black">Lote</span></p><p class="MsoNormal"></p><p class="MsoNormal"></p>
			</div>
		</text>
		
    	    
		
</section>
			    
    	    

			    
		               
<section>
			<title value="14.     CONDICIONES GENERALES DE DISPENSACIÓN"/>
				<code>
					<coding>
						<system value="http://spor.ema.europa.eu/v1/example-sections"/>
						<code value="${document[n].section[n].subsection[n].typeCode}"/>
						<display value="${document[n].section[n].subsection[n].typeDisplay}"/>
					</coding>
				</code>
		<text>
			<status value="additional"/>
			<div xmlns="http://www.w3.org/1999/xhtml">
		    <p class="MsoNormal"></p><p class="MsoNormal"></p>
			</div>
		</text>
		
    	    
		
</section>
			    
    	    

			    
		               
<section>
			<title value="15.     INSTRUCCIONES DE USO"/>
				<code>
					<coding>
						<system value="http://spor.ema.europa.eu/v1/example-sections"/>
						<code value="${document[n].section[n].subsection[n].typeCode}"/>
						<display value="${document[n].section[n].subsection[n].typeDisplay}"/>
					</coding>
				</code>
		<text>
			<status value="additional"/>
			<div xmlns="http://www.w3.org/1999/xhtml">
		    <p class="MsoNormal"></p><p class="MsoNormal"></p>
			</div>
		</text>
		
    	    
		
</section>
			    
    	    

			    
		               
<section>
			<title value="16.     INFORMACIÓN EN BRAILLE"/>
				<code>
					<coding>
						<system value="http://spor.ema.europa.eu/v1/example-sections"/>
						<code value="${document[n].section[n].subsection[n].typeCode}"/>
						<display value="${document[n].section[n].subsection[n].typeDisplay}"/>
					</coding>
				</code>
		<text>
			<status value="additional"/>
			<div xmlns="http://www.w3.org/1999/xhtml">
		    <p class="MsoNormal"></p><p class="MsoNormal"><span lang="PT" style="font-size:11.0pt;color:black">gonal‑f 450 ui/0,75 ml</span></p><p class="MsoNormal"></p><p class="MsoNormal"></p>
			</div>
		</text>
		
    	    
		
</section>
			    
    	    

			    
		               
<section>
			<title value="17.     IDENTIFICADOR ÚNICO - CÓDIGO DE BARRAS 2D"/>
				<code>
					<coding>
						<system value="http://spor.ema.europa.eu/v1/example-sections"/>
						<code value="${document[n].section[n].subsection[n].typeCode}"/>
						<display value="${document[n].section[n].subsection[n].typeDisplay}"/>
					</coding>
				</code>
		<text>
			<status value="additional"/>
			<div xmlns="http://www.w3.org/1999/xhtml">
		    <p class="MsoNormal" style="page-break-after:avoid"></p><p class="MsoNormal"><span lang="ES" style="font-size:11.0pt;color:black; background:#D9D9D9">Incluido el código de barras 2D que lleva el identificador único.</span></p><p class="MsoNormal"></p><p class="MsoNormal"></p>
			</div>
		</text>
		
    	    
		
</section>
			    
    	    

			    
		               
<section>
			<title value="18.     iDENTIFICADOR ÚNICO - INFORMACIÓN EN CARACTERES VISUALES"/>
				<code>
					<coding>
						<system value="http://spor.ema.europa.eu/v1/example-sections"/>
						<code value="${document[n].section[n].subsection[n].typeCode}"/>
						<display value="${document[n].section[n].subsection[n].typeDisplay}"/>
					</coding>
				</code>
		<text>
			<status value="additional"/>
			<div xmlns="http://www.w3.org/1999/xhtml">
		    <p class="MsoNormal" style="page-break-after:avoid"></p><p class="MsoNormal"><span lang="ES" style="font-size:11.0pt">PC</span></p><p class="MsoNormal"><span lang="ES" style="font-size:11.0pt">SN</span></p><p class="MsoNormal"><span lang="ES" style="font-size:11.0pt">NN</span></p><p class="MsoNormal"></p><span lang="ES" style='font-size:11.0pt;font-family:"Times New Roman",serif; color:black'><br clear="all" style="page-break-before:always"/> </span><br clear="all" style="page-break-before:always"/>
			</div>
		</text>
		
    	    
		
</section>
			    
    	    
		
</section>
			    
    	    
		
	
		
		
    	    
				
			    
						
		               
<section>
			<title value="INFORMACIÓN QUE DEBE INCLUIRSE EN LA PLUMA"/>
				<code>
					<coding>
						<system value="http://spor.ema.europa.eu/v1/example-sections"/>
						<code value="${document[n].section[n].subsection[n].typeCode}"/>
						<display value="${document[n].section[n].subsection[n].typeDisplay}"/>
					</coding>
				</code>
		<text>
			<status value="additional"/>
			<div xmlns="http://www.w3.org/1999/xhtml">
		    <div style="border:solid windowtext 1.0pt;padding:2.0pt 4.0pt 1.0pt 4.0pt"> <p class="MsoNormal" style="margin-left:28.35pt;text-indent:-28.35pt;border:none; padding:0in"></p> <p class="MsoNormal" style="margin-left:28.35pt;text-indent:-28.35pt;border:none; padding:0in"><b><span lang="ES" style="font-size:11.0pt;color:black">PLUMA DE GONAL‑f 450 UI/0,75 ML, ETIQUETA ADHESIVA</span></b></p> </div><p class="MsoNormal"></p><p class="MsoHeader"><i><span lang="ES" style="font-size:11.0pt;color:black; background:#D9D9D9">Se añadirá una etiqueta adhesiva para que el paciente anote el día de la primera utilización.</span></i></p><p class="MsoNormal" style="page-break-after:avoid"></p><p class="MsoNormal" style="page-break-after:avoid"><span lang="ES"><img border="0" height="170" src="#image2" width="203"/></span></p><i><span lang="ES" style='font-size:11.0pt;font-family:"Times New Roman",serif; color:black'><br clear="all" style="page-break-before:always"/> </span></i><span lang="ES" style='font-size:11.0pt;font-family:"Times New Roman",serif; color:black'><br clear="all" style="page-break-before:always"/> </span><br clear="all" style="page-break-before:always"/>
			</div>
		</text>
		
    	    
		
</section>
			    
    	    
				
			    
						
		               
<section>
			<title value="INFORMACIÓN MÍNIMA QUE DEBE INCLUIRSE EN PEQUEÑOS ACONDICIONAMIENTOS PRIMARIOS"/>
				<code>
					<coding>
						<system value="http://spor.ema.europa.eu/v1/example-sections"/>
						<code value="${document[n].section[n].subsection[n].typeCode}"/>
						<display value="${document[n].section[n].subsection[n].typeDisplay}"/>
					</coding>
				</code>
		<text>
			<status value="additional"/>
			<div xmlns="http://www.w3.org/1999/xhtml">
		    <div style="border:solid windowtext 1.0pt;padding:2.0pt 4.0pt 1.0pt 4.0pt"> <p class="MsoNormal" style="border:none;padding:0in"></p> <p class="MsoNormal" style="border:none;padding:0in"><b><span lang="ES" style="font-size:11.0pt;color:black">PLUMA DE GONAL‑f 450 UI/0,75 ML, ETIQUETA DE LA PLUMA</span></b></p> </div><p class="MsoNormal"></p><p class="MsoNormal"></p>
			</div>
		</text>
		
    	    

			    
		               
<section>
			<title value="1.       NOMBRE DEL MEDICAMENTO Y VÍA(S) DE ADMINISTRACIÓN"/>
				<code>
					<coding>
						<system value="http://spor.ema.europa.eu/v1/example-sections"/>
						<code value="${document[n].section[n].subsection[n].typeCode}"/>
						<display value="${document[n].section[n].subsection[n].typeDisplay}"/>
					</coding>
				</code>
		<text>
			<status value="additional"/>
			<div xmlns="http://www.w3.org/1999/xhtml">
		    <p class="MsoNormal"></p><p class="MsoNormal"><span lang="ES" style="font-size:11.0pt;color:black">GONAL‑f 450 UI/0,75 ml solución inyectable en pluma precargada</span></p><p class="MsoNormal"><span lang="ES" style="font-size:11.0pt;color:black">folitropina alfa</span></p><p class="MsoNormal"><span lang="ES" style="font-size:11.0pt;color:black">Vía subcutánea</span></p><p class="MsoNormal"></p><p class="MsoFooter"></p>
			</div>
		</text>
		
    	    
		
</section>
			    
    	    

			    
		               
<section>
			<title value="2.       FORMA DE ADMINISTRACIÓN"/>
				<code>
					<coding>
						<system value="http://spor.ema.europa.eu/v1/example-sections"/>
						<code value="${document[n].section[n].subsection[n].typeCode}"/>
						<display value="${document[n].section[n].subsection[n].typeDisplay}"/>
					</coding>
				</code>
		<text>
			<status value="additional"/>
			<div xmlns="http://www.w3.org/1999/xhtml">
		    <p class="MsoNormal"></p><p class="MsoNormal"></p>
			</div>
		</text>
		
    	    
		
</section>
			    
    	    

			    
		               
<section>
			<title value="3.       FECHA DE CADUCIDAD"/>
				<code>
					<coding>
						<system value="http://spor.ema.europa.eu/v1/example-sections"/>
						<code value="${document[n].section[n].subsection[n].typeCode}"/>
						<display value="${document[n].section[n].subsection[n].typeDisplay}"/>
					</coding>
				</code>
		<text>
			<status value="additional"/>
			<div xmlns="http://www.w3.org/1999/xhtml">
		    <p class="MsoHeader"></p><p class="MsoNormal"><span lang="ES" style="font-size:11.0pt;color:black">CAD</span></p><p class="MsoNormal"><span lang="ES" style="font-size:11.0pt;color:black">Periodo de validez después de la primera utilización: 28 días</span></p><p class="MsoNormal"></p><p class="MsoNormal"></p>
			</div>
		</text>
		
    	    
		
</section>
			    
    	    

			    
		               
<section>
			<title value="4.       NÚMERO DE LOTE"/>
				<code>
					<coding>
						<system value="http://spor.ema.europa.eu/v1/example-sections"/>
						<code value="${document[n].section[n].subsection[n].typeCode}"/>
						<display value="${document[n].section[n].subsection[n].typeDisplay}"/>
					</coding>
				</code>
		<text>
			<status value="additional"/>
			<div xmlns="http://www.w3.org/1999/xhtml">
		    <p class="MsoNormal" style="margin-left:28.35pt;text-indent:-28.35pt"></p><p class="MsoNormal"><span lang="ES" style="font-size:11.0pt;color:black">Lote</span></p><p class="MsoNormal" style="margin-left:28.35pt;text-indent:-28.35pt"></p><p class="MsoNormal" style="margin-left:28.35pt;text-indent:-28.35pt"></p>
			</div>
		</text>
		
    	    
		
</section>
			    
    	    

			    
		               
<section>
			<title value="5.       CONTENIDO EN PESO, EN VOLUMEN O EN UNIDADES"/>
				<code>
					<coding>
						<system value="http://spor.ema.europa.eu/v1/example-sections"/>
						<code value="${document[n].section[n].subsection[n].typeCode}"/>
						<display value="${document[n].section[n].subsection[n].typeDisplay}"/>
					</coding>
				</code>
		<text>
			<status value="additional"/>
			<div xmlns="http://www.w3.org/1999/xhtml">
		    <p class="MsoNormal"></p><p class="MsoNormal"><span lang="ES" style="font-size:11.0pt;color:black; background:#BFBFBF">450 UI/0,75 ml</span></p><p class="MsoNormal"></p><p class="MsoNormal"></p>
			</div>
		</text>
		
    	    
		
</section>
			    
    	    

			    
		               
<section>
			<title value="6.       OTROS"/>
				<code>
					<coding>
						<system value="http://spor.ema.europa.eu/v1/example-sections"/>
						<code value="${document[n].section[n].subsection[n].typeCode}"/>
						<display value="${document[n].section[n].subsection[n].typeDisplay}"/>
					</coding>
				</code>
		<text>
			<status value="additional"/>
			<div xmlns="http://www.w3.org/1999/xhtml">
		    <p class="MsoNormal"></p><p class="MsoNormal"></p><span lang="ES" style='font-size:11.0pt;font-family:"Times New Roman",serif; color:black'><br clear="all" style="page-break-before:always"/> </span><br clear="all" style="page-break-before:always"/>
			</div>
		</text>
		
    	    
		
</section>
			    
    	    
		
</section>
			    
    	    
		
	
		
		
    	    
				
			    
						
		               
<section>
			<title value="INFORMACIÓN QUE DEBE FIGURAR EN EL EMBALAJE EXTERIOR"/>
				<code>
					<coding>
						<system value="http://spor.ema.europa.eu/v1/example-sections"/>
						<code value="${document[n].section[n].subsection[n].typeCode}"/>
						<display value="${document[n].section[n].subsection[n].typeDisplay}"/>
					</coding>
				</code>
		<text>
			<status value="additional"/>
			<div xmlns="http://www.w3.org/1999/xhtml">
		    <div style="border:solid windowtext 1.0pt;padding:1.0pt 4.0pt 1.0pt 4.0pt"> <p class="MsoNormal" style="margin-left:28.35pt;text-indent:-28.35pt;border:none; padding:0in"></p> <p class="MsoNormal" style="margin-left:28.35pt;text-indent:-28.35pt;border:none; padding:0in"><b><span lang="ES" style="font-size:11.0pt">PLUMA DE GONAL‑f 900 UI/1,5 ML<span style="text-transform:uppercase">, </span><span style="color:black">CAJA DE 1 PLUMA PRECARGADA</span></span></b></p> </div><p class="MsoNormal"></p><p class="MsoNormal"></p>
			</div>
		</text>
		
    	    

			    
		               
<section>
			<title value="1.       NOMBRE DEL MEDICAMENTO"/>
				<code>
					<coding>
						<system value="http://spor.ema.europa.eu/v1/example-sections"/>
						<code value="${document[n].section[n].subsection[n].typeCode}"/>
						<display value="${document[n].section[n].subsection[n].typeDisplay}"/>
					</coding>
				</code>
		<text>
			<status value="additional"/>
			<div xmlns="http://www.w3.org/1999/xhtml">
		    <p class="MsoNormal"></p><p class="MsoNormal"><span lang="ES" style="font-size:11.0pt;color:black">GONAL‑f 900 UI/1,5 ml solución inyectable en pluma precargada</span></p><p class="MsoNormal"><span lang="PT" style="font-size:11.0pt;color:black">folitropina alfa</span></p><p class="MsoNormal"></p><p class="MsoNormal"></p>
			</div>
		</text>
		
    	    
		
</section>
			    
    	    

			    
		               
<section>
			<title value="2.       PRINCIPIO(S) ACTIVO(S)"/>
				<code>
					<coding>
						<system value="http://spor.ema.europa.eu/v1/example-sections"/>
						<code value="${document[n].section[n].subsection[n].typeCode}"/>
						<display value="${document[n].section[n].subsection[n].typeDisplay}"/>
					</coding>
				</code>
		<text>
			<status value="additional"/>
			<div xmlns="http://www.w3.org/1999/xhtml">
		    <p class="MsoNormal"></p><p class="MsoNormal"><span lang="PT" style="font-size:11.0pt;color:black">Cada pluma precargada multidosis proporciona 900 UI de folitropina alfa, equivalente a 66 microgramos, por 1,5 ml.</span></p><p class="MsoNormal"><span lang="PT" style="font-size:11.0pt;color:black">Folitropina alfa, 600 UI/ml (equivalente a 44 microgramos/ml).</span></p><p class="MsoNormal"></p><p class="MsoNormal"></p>
			</div>
		</text>
		
    	    
		
</section>
			    
    	    

			    
		               
<section>
			<title value="3.       LISTA DE EXCIPIENTES"/>
				<code>
					<coding>
						<system value="http://spor.ema.europa.eu/v1/example-sections"/>
						<code value="${document[n].section[n].subsection[n].typeCode}"/>
						<display value="${document[n].section[n].subsection[n].typeDisplay}"/>
					</coding>
				</code>
		<text>
			<status value="additional"/>
			<div xmlns="http://www.w3.org/1999/xhtml">
		    <p class="MsoNormal"></p><p class="MsoNormal"><span lang="PT" style="font-size:11.0pt;color:black">Excipientes: Poloxámero 188, sacarosa, metionina, dihidrogenofosfato de sodio monohidrato, hidrogenofosfato de disodio dihidrato, m‑cresol, ácido fosfórico concentrado, hidróxido de sodio <a name="_Hlk514850385">y agua para preparaciones inyectables.</a></span></p><p class="MsoNormal"></p><p class="MsoNormal"></p>
			</div>
		</text>
		
    	    
		
</section>
			    
    	    

			    
		               
<section>
			<title value="4.       FORMA FARMACÉUTICA Y CONTENIDO DEL ENVASE"/>
				<code>
					<coding>
						<system value="http://spor.ema.europa.eu/v1/example-sections"/>
						<code value="${document[n].section[n].subsection[n].typeCode}"/>
						<display value="${document[n].section[n].subsection[n].typeDisplay}"/>
					</coding>
				</code>
		<text>
			<status value="additional"/>
			<div xmlns="http://www.w3.org/1999/xhtml">
		    <p class="MsoNormal"></p><p class="MsoNormal"><span lang="ES" style="font-size:11.0pt;color:black">Solución inyectable en pluma precargada.</span></p><p class="MsoNormal"><span lang="ES" style="font-size:11.0pt;color:black">1 pluma precargada multidosis</span></p><p class="MsoNormal"><span lang="ES" style="font-size:11.0pt;color:black">20 agujas para inyección</span></p><p class="MsoNormal"></p><p class="MsoNormal"></p>
			</div>
		</text>
		
    	    
		
</section>
			    
    	    

			    
		               
<section>
			<title value="5.       FORMA Y VÍA(S) DE ADMINISTRACIÓN"/>
				<code>
					<coding>
						<system value="http://spor.ema.europa.eu/v1/example-sections"/>
						<code value="${document[n].section[n].subsection[n].typeCode}"/>
						<display value="${document[n].section[n].subsection[n].typeDisplay}"/>
					</coding>
				</code>
		<text>
			<status value="additional"/>
			<div xmlns="http://www.w3.org/1999/xhtml">
		    <p class="MsoNormal"></p><p class="MsoNormal"><span lang="ES" style="font-size:11.0pt;color:black">Leer el prospecto antes de utilizar este medicamento.</span></p><p class="MsoNormal"><span lang="ES" style="font-size:11.0pt;color:black">Vía subcutánea.</span></p><p class="MsoNormal"></p><p class="MsoNormal"></p>
			</div>
		</text>
		
    	    
		
</section>
			    
    	    

			    
		               
<section>
			<title value="6.       ADVERTENCIA ESPECIAL DE QUE EL MEDICAMENTO DEBE MANTENERSE FUERA DE LA VISTA Y DEL ALCANCE DE LOS NIÑOS"/>
				<code>
					<coding>
						<system value="http://spor.ema.europa.eu/v1/example-sections"/>
						<code value="${document[n].section[n].subsection[n].typeCode}"/>
						<display value="${document[n].section[n].subsection[n].typeDisplay}"/>
					</coding>
				</code>
		<text>
			<status value="additional"/>
			<div xmlns="http://www.w3.org/1999/xhtml">
		    <p class="MsoNormal"></p><p class="MsoNormal"><span lang="ES" style="font-size:11.0pt;color:black">Mantener fuera de la vista y del alcance de los niños.</span></p><p class="MsoNormal"></p><p class="MsoNormal"></p>
			</div>
		</text>
		
    	    
		
</section>
			    
    	    

			    
		               
<section>
			<title value="7.       OTRA(S) ADVERTENCIA(S) ESPECIAL(ES), SI ES NECESARIO"/>
				<code>
					<coding>
						<system value="http://spor.ema.europa.eu/v1/example-sections"/>
						<code value="${document[n].section[n].subsection[n].typeCode}"/>
						<display value="${document[n].section[n].subsection[n].typeDisplay}"/>
					</coding>
				</code>
		<text>
			<status value="additional"/>
			<div xmlns="http://www.w3.org/1999/xhtml">
		    <p class="MsoNormal"></p><p class="MsoNormal"></p>
			</div>
		</text>
		
    	    
		
</section>
			    
    	    

			    
		               
<section>
			<title value="8.       FECHA DE CADUCIDAD"/>
				<code>
					<coding>
						<system value="http://spor.ema.europa.eu/v1/example-sections"/>
						<code value="${document[n].section[n].subsection[n].typeCode}"/>
						<display value="${document[n].section[n].subsection[n].typeDisplay}"/>
					</coding>
				</code>
		<text>
			<status value="additional"/>
			<div xmlns="http://www.w3.org/1999/xhtml">
		    <p class="MsoNormal" style="page-break-after:avoid"></p><p class="MsoNormal"><span lang="ES" style="font-size:11.0pt;color:black">CAD</span></p><p class="MsoNormal"></p><p class="MsoNormal"></p>
			</div>
		</text>
		
    	    
		
</section>
			    
    	    

			    
		               
<section>
			<title value="9.       CONDICIONES ESPECIALES DE CONSERVACIÓN"/>
				<code>
					<coding>
						<system value="http://spor.ema.europa.eu/v1/example-sections"/>
						<code value="${document[n].section[n].subsection[n].typeCode}"/>
						<display value="${document[n].section[n].subsection[n].typeDisplay}"/>
					</coding>
				</code>
		<text>
			<status value="additional"/>
			<div xmlns="http://www.w3.org/1999/xhtml">
		    <p class="MsoNormal" style="page-break-after:avoid"></p><p class="MsoNormal"><span lang="ES" style="font-size:11.0pt;color:black">Conservar en nevera. No congelar.</span></p><p class="MsoNormal"><span lang="ES" style="font-size:11.0pt;color:black">Conservar en el embalaje original para protegerlo de la luz.</span></p><p class="MsoNormal"><span lang="ES" style="font-size:11.0pt;color:black">Dentro de su periodo de validez, el medicamento puede conservarse a temperatura igual o inferior a 25ºC durante un máximo de 3 meses sin refrigerar y debe desecharse después.</span></p><p class="MsoNormal"><span lang="ES" style="font-size:11.0pt;color:black">Una vez abierto, el medicamento puede conservarse un máximo de 28 días a temperatura igual o inferior a 25ºC.</span></p><p class="MsoNormal"></p><p class="MsoNormal"></p>
			</div>
		</text>
		
    	    
		
</section>
			    
    	    

			    
		               
<section>
			<title value="10.     PRECAUCIONES ESPECIALES DE ELIMINACIÓN DEL MEDICAMENTO NO UTILIZADO Y DE LOS MATERIALES DERIVADOS DE SU USO (CUANDO CORRESPONDA)"/>
				<code>
					<coding>
						<system value="http://spor.ema.europa.eu/v1/example-sections"/>
						<code value="${document[n].section[n].subsection[n].typeCode}"/>
						<display value="${document[n].section[n].subsection[n].typeDisplay}"/>
					</coding>
				</code>
		<text>
			<status value="additional"/>
			<div xmlns="http://www.w3.org/1999/xhtml">
		    <p class="MsoNormal"></p><p class="MsoNormal"><span lang="ES" style="font-size:11.0pt;color:black">La eliminación del medicamento no utilizado y de todos los materiales que hayan estado en contacto con él se realizará de acuerdo con la normativa local.</span></p><p class="MsoNormal"></p><p class="MsoNormal"></p>
			</div>
		</text>
		
    	    
		
</section>
			    
    	    

			    
		               
<section>
			<title value="11.     NOMBRE Y DIRECCIÓN DEL TITULAR DE LA AUTORIZACIÓN DE COMERCIALIZACIÓN"/>
				<code>
					<coding>
						<system value="http://spor.ema.europa.eu/v1/example-sections"/>
						<code value="${document[n].section[n].subsection[n].typeCode}"/>
						<display value="${document[n].section[n].subsection[n].typeDisplay}"/>
					</coding>
				</code>
		<text>
			<status value="additional"/>
			<div xmlns="http://www.w3.org/1999/xhtml">
		    <p class="MsoNormal"></p><p class="Listenabsatz1" style="margin:0in;margin-bottom:.0001pt;line-height: normal;page-break-after:avoid"><span lang="ES" style="font-size:11.0pt">Merck Europe B.V.</span></p><p class="Listenabsatz1" style="margin:0in;margin-bottom:.0001pt;line-height: normal;page-break-after:avoid"><span lang="ES" style="font-size:11.0pt">Gustav Mahlerplein 102</span></p><p class="Listenabsatz1" style="margin:0in;margin-bottom:.0001pt;line-height: normal;page-break-after:avoid"><span lang="ES" style="font-size:11.0pt">1082 MA Amsterdam</span></p><p class="MsoNormal"><span lang="ES" style="font-size:11.0pt">Países Bajos</span></p><p class="MsoNormal"></p><p class="MsoNormal"></p>
			</div>
		</text>
		
    	    
		
</section>
			    
    	    

			    
		               
<section>
			<title value="12.     NÚMERO(S) DE AUTORIZACIÓN DE COMERCIALIZACIÓN"/>
				<code>
					<coding>
						<system value="http://spor.ema.europa.eu/v1/example-sections"/>
						<code value="${document[n].section[n].subsection[n].typeCode}"/>
						<display value="${document[n].section[n].subsection[n].typeDisplay}"/>
					</coding>
				</code>
		<text>
			<status value="additional"/>
			<div xmlns="http://www.w3.org/1999/xhtml">
		    <p class="MsoNormal"></p><p class="MsoNormal"><span lang="ES" style="font-size:11.0pt;color:black">EU/1/95/001/035   <span style="background:#D9D9D9">solución inyectable en pluma precargada</span></span></p><p class="MsoNormal"><span lang="ES" style="font-size:11.0pt;color:black"> <span style="background:#D9D9D9">20 agujas</span></span></p><p class="MsoNormal"></p><p class="MsoNormal"></p>
			</div>
		</text>
		
    	    
		
</section>
			    
    	    

			    
		               
<section>
			<title value="13.     NÚMERO DE LOTE"/>
				<code>
					<coding>
						<system value="http://spor.ema.europa.eu/v1/example-sections"/>
						<code value="${document[n].section[n].subsection[n].typeCode}"/>
						<display value="${document[n].section[n].subsection[n].typeDisplay}"/>
					</coding>
				</code>
		<text>
			<status value="additional"/>
			<div xmlns="http://www.w3.org/1999/xhtml">
		    <p class="MsoNormal"></p><p class="MsoNormal"><span lang="ES" style="font-size:11.0pt;color:black">Lote</span></p><p class="MsoNormal"></p><p class="MsoNormal"></p>
			</div>
		</text>
		
    	    
		
</section>
			    
    	    

			    
		               
<section>
			<title value="14.     CONDICIONES GENERALES DE DISPENSACIÓN"/>
				<code>
					<coding>
						<system value="http://spor.ema.europa.eu/v1/example-sections"/>
						<code value="${document[n].section[n].subsection[n].typeCode}"/>
						<display value="${document[n].section[n].subsection[n].typeDisplay}"/>
					</coding>
				</code>
		<text>
			<status value="additional"/>
			<div xmlns="http://www.w3.org/1999/xhtml">
		    <p class="MsoNormal" style="margin-left:.5in;text-indent:-.5in"></p><p class="MsoNormal"></p>
			</div>
		</text>
		
    	    
		
</section>
			    
    	    

			    
		               
<section>
			<title value="15.     INSTRUCCIONES DE USO"/>
				<code>
					<coding>
						<system value="http://spor.ema.europa.eu/v1/example-sections"/>
						<code value="${document[n].section[n].subsection[n].typeCode}"/>
						<display value="${document[n].section[n].subsection[n].typeDisplay}"/>
					</coding>
				</code>
		<text>
			<status value="additional"/>
			<div xmlns="http://www.w3.org/1999/xhtml">
		    <p class="MsoNormal"></p><p class="MsoNormal"></p>
			</div>
		</text>
		
    	    
		
</section>
			    
    	    

			    
		               
<section>
			<title value="16.     INFORMACIÓN EN BRAILLE"/>
				<code>
					<coding>
						<system value="http://spor.ema.europa.eu/v1/example-sections"/>
						<code value="${document[n].section[n].subsection[n].typeCode}"/>
						<display value="${document[n].section[n].subsection[n].typeDisplay}"/>
					</coding>
				</code>
		<text>
			<status value="additional"/>
			<div xmlns="http://www.w3.org/1999/xhtml">
		    <p class="MsoNormal"></p><p class="MsoNormal"><span lang="PT" style="font-size:11.0pt;color:black">gonal‑f 900 ui/1,5 ml</span></p><p class="MsoNormal"></p><p align="left" class="MsoBodyText" style="text-align:left;page-break-after:auto"></p>
			</div>
		</text>
		
    	    
		
</section>
			    
    	    

			    
		               
<section>
			<title value="17.     IDENTIFICADOR ÚNICO - CÓDIGO DE BARRAS 2D"/>
				<code>
					<coding>
						<system value="http://spor.ema.europa.eu/v1/example-sections"/>
						<code value="${document[n].section[n].subsection[n].typeCode}"/>
						<display value="${document[n].section[n].subsection[n].typeDisplay}"/>
					</coding>
				</code>
		<text>
			<status value="additional"/>
			<div xmlns="http://www.w3.org/1999/xhtml">
		    <p class="MsoNormal" style="page-break-after:avoid"></p><p class="MsoNormal"><span lang="ES" style="font-size:11.0pt;color:black; background:#D9D9D9">Incluido el código de barras 2D que lleva el identificador único.</span></p><p class="MsoNormal"></p><p class="MsoNormal"></p>
			</div>
		</text>
		
    	    
		
</section>
			    
    	    

			    
		               
<section>
			<title value="18.     iDENTIFICADOR ÚNICO - INFORMACIÓN EN CARACTERES VISUALES"/>
				<code>
					<coding>
						<system value="http://spor.ema.europa.eu/v1/example-sections"/>
						<code value="${document[n].section[n].subsection[n].typeCode}"/>
						<display value="${document[n].section[n].subsection[n].typeDisplay}"/>
					</coding>
				</code>
		<text>
			<status value="additional"/>
			<div xmlns="http://www.w3.org/1999/xhtml">
		    <p class="MsoNormal" style="page-break-after:avoid"></p><p class="MsoNormal"><span lang="ES" style="font-size:11.0pt">PC</span></p><p class="MsoNormal"><span lang="ES" style="font-size:11.0pt">SN</span></p><p class="MsoNormal"><span lang="ES" style="font-size:11.0pt">NN</span></p><p class="MsoNormal"></p><span lang="ES" style='font-size:11.0pt;font-family:"Times New Roman",serif; color:black'><br clear="all" style="page-break-before:always"/> </span><br clear="all" style="page-break-before:always"/>
			</div>
		</text>
		
    	    
		
</section>
			    
    	    
		
</section>
			    
    	    
		
	
		
		
    	    
				
			    
						
		               
<section>
			<title value="INFORMACIÓN QUE DEBE INCLUIRSE EN LA PLUMA"/>
				<code>
					<coding>
						<system value="http://spor.ema.europa.eu/v1/example-sections"/>
						<code value="${document[n].section[n].subsection[n].typeCode}"/>
						<display value="${document[n].section[n].subsection[n].typeDisplay}"/>
					</coding>
				</code>
		<text>
			<status value="additional"/>
			<div xmlns="http://www.w3.org/1999/xhtml">
		    <div style="border:solid windowtext 1.0pt;padding:2.0pt 4.0pt 1.0pt 4.0pt"> <p class="MsoNormal" style="margin-left:28.35pt;text-indent:-28.35pt;border:none; padding:0in"></p> <p class="MsoNormal" style="margin-left:28.35pt;text-indent:-28.35pt;border:none; padding:0in"><b><span lang="ES" style="font-size:11.0pt;color:black">PLUMA DE GONAL‑f 900 UI/1,5 ML, ETIQUETA ADHESIVA</span></b></p> </div><p class="MsoNormal"></p><p class="MsoHeader"><i><span lang="ES" style="font-size:11.0pt;color:black; background:#D9D9D9">Se añadirá una etiqueta adhesiva para que el paciente anote el día de la primera utilización.</span></i></p><p align="left" class="MsoBodyText" style="text-align:left"></p><p align="left" class="MsoBodyText" style="text-align:left"><span lang="ES"><img border="0" height="170" src="#image3" width="203"/></span></p><i><span lang="ES" style='font-size:11.0pt;font-family:"Times New Roman",serif; color:black'><br clear="all" style="page-break-before:always"/> </span></i><span lang="ES" style='font-size:11.0pt;font-family:"Times New Roman",serif; color:black'><br clear="all" style="page-break-before:always"/> </span><br clear="all" style="page-break-before:always"/>
			</div>
		</text>
		
    	    
		
</section>
			    
    	    
				
			    
						
		               
<section>
			<title value="INFORMACIÓN MÍNIMA QUE DEBE INCLUIRSE EN PEQUEÑOS ACONDICIONAMIENTOS PRIMARIOS"/>
				<code>
					<coding>
						<system value="http://spor.ema.europa.eu/v1/example-sections"/>
						<code value="${document[n].section[n].subsection[n].typeCode}"/>
						<display value="${document[n].section[n].subsection[n].typeDisplay}"/>
					</coding>
				</code>
		<text>
			<status value="additional"/>
			<div xmlns="http://www.w3.org/1999/xhtml">
		    <div style="border:solid windowtext 1.0pt;padding:2.0pt 4.0pt 1.0pt 4.0pt"> <p class="MsoNormal" style="border:none;padding:0in"></p> <p class="MsoNormal" style="border:none;padding:0in"><b><span lang="ES" style="font-size:11.0pt;color:black">PLUMA DE GONAL‑f 900 UI/1,5 ML, ETIQUETA DE LA PLUMA</span></b></p> </div><p class="MsoNormal"></p><p class="MsoNormal"></p>
			</div>
		</text>
		
    	    

			    
		               
<section>
			<title value="1.       NOMBRE DEL MEDICAMENTO Y VÍA(S) DE ADMINISTRACIÓN"/>
				<code>
					<coding>
						<system value="http://spor.ema.europa.eu/v1/example-sections"/>
						<code value="${document[n].section[n].subsection[n].typeCode}"/>
						<display value="${document[n].section[n].subsection[n].typeDisplay}"/>
					</coding>
				</code>
		<text>
			<status value="additional"/>
			<div xmlns="http://www.w3.org/1999/xhtml">
		    <p class="MsoNormal"></p><p class="MsoNormal"><span lang="ES" style="font-size:11.0pt;color:black">GONAL‑f 900 UI/1,5 ml solución inyectable en pluma precargada</span></p><p class="MsoNormal"><span lang="ES" style="font-size:11.0pt;color:black">folitropina alfa</span></p><p class="MsoNormal"><span lang="ES" style="font-size:11.0pt;color:black">Vía subcutánea</span></p><p class="MsoFooter"></p><p class="MsoNormal"></p>
			</div>
		</text>
		
    	    
		
</section>
			    
    	    

			    
		               
<section>
			<title value="2.       FORMA DE ADMINISTRACIÓN"/>
				<code>
					<coding>
						<system value="http://spor.ema.europa.eu/v1/example-sections"/>
						<code value="${document[n].section[n].subsection[n].typeCode}"/>
						<display value="${document[n].section[n].subsection[n].typeDisplay}"/>
					</coding>
				</code>
		<text>
			<status value="additional"/>
			<div xmlns="http://www.w3.org/1999/xhtml">
		    <p class="MsoNormal"></p><p class="MsoNormal"></p>
			</div>
		</text>
		
    	    
		
</section>
			    
    	    

			    
		               
<section>
			<title value="3.       FECHA DE CADUCIDAD"/>
				<code>
					<coding>
						<system value="http://spor.ema.europa.eu/v1/example-sections"/>
						<code value="${document[n].section[n].subsection[n].typeCode}"/>
						<display value="${document[n].section[n].subsection[n].typeDisplay}"/>
					</coding>
				</code>
		<text>
			<status value="additional"/>
			<div xmlns="http://www.w3.org/1999/xhtml">
		    <p class="MsoHeader"></p><p class="MsoNormal"><span lang="ES" style="font-size:11.0pt;color:black">CAD</span></p><p class="MsoNormal"><span lang="ES" style="font-size:11.0pt;color:black">Periodo de validez después de la primera utilización: 28 días</span></p><p class="MsoNormal"></p><p class="MsoNormal"></p>
			</div>
		</text>
		
    	    
		
</section>
			    
    	    

			    
		               
<section>
			<title value="4.       NÚMERO DE LOTE"/>
				<code>
					<coding>
						<system value="http://spor.ema.europa.eu/v1/example-sections"/>
						<code value="${document[n].section[n].subsection[n].typeCode}"/>
						<display value="${document[n].section[n].subsection[n].typeDisplay}"/>
					</coding>
				</code>
		<text>
			<status value="additional"/>
			<div xmlns="http://www.w3.org/1999/xhtml">
		    <p class="MsoNormal" style="margin-left:28.35pt;text-indent:-28.35pt"></p><p class="MsoNormal"><span lang="ES" style="font-size:11.0pt;color:black">Lote</span></p><p class="MsoNormal" style="margin-left:28.35pt;text-indent:-28.35pt"></p><p class="MsoNormal" style="margin-left:28.35pt;text-indent:-28.35pt"></p>
			</div>
		</text>
		
    	    
		
</section>
			    
    	    

			    
		               
<section>
			<title value="5        CONTENIDO EN PESO, EN VOLUMEN O EN UNIDADES"/>
				<code>
					<coding>
						<system value="http://spor.ema.europa.eu/v1/example-sections"/>
						<code value="${document[n].section[n].subsection[n].typeCode}"/>
						<display value="${document[n].section[n].subsection[n].typeDisplay}"/>
					</coding>
				</code>
		<text>
			<status value="additional"/>
			<div xmlns="http://www.w3.org/1999/xhtml">
		    <p class="MsoNormal"></p><p class="MsoNormal"><span lang="ES" style="font-size:11.0pt;color:black; background:#BFBFBF">900 UI/1,5 ml</span></p><p class="MsoNormal"></p><p class="MsoNormal"></p>
			</div>
		</text>
		
    	    
		
</section>
			    
    	    

			    
		               
<section>
			<title value="6.       OTROS"/>
				<code>
					<coding>
						<system value="http://spor.ema.europa.eu/v1/example-sections"/>
						<code value="${document[n].section[n].subsection[n].typeCode}"/>
						<display value="${document[n].section[n].subsection[n].typeDisplay}"/>
					</coding>
				</code>
		<text>
			<status value="additional"/>
			<div xmlns="http://www.w3.org/1999/xhtml">
		    <p class="MsoNormal"></p><p class="MsoNormal"></p><b><span lang="ES" style='font-size:11.0pt;font-family:"Times New Roman",serif; color:black'><br clear="all" style="page-break-before:always"/> </span></b><span lang="ES" style='font-size:11.0pt;font-family:"Times New Roman",serif; color:black'><br clear="all" style="page-break-before:always"/> </span>
			</div>
		</text>
		
    	    
		
</section>
			    
    	    
		
</section>
			    
    	    
		
	
</section>
							<!-- sections can repeat as necessary -->
						</Composition>
					</resource>
				</entry>
				
			</Bundle>
		</resource>
	</entry>
</Bundle>