<?xml version="1.0" encoding="UTF-8"?>
<!-- This is a template for a FHIR resource, and needs items (marked with "${}") replacing to make a real instance -->
<!-- The resulting instance is a Bundle of Bundles, each of which is a document (having a Composition, and supporting resources) -->
<!-- 2020-02-22 -->
<!-- This is for FHIR version R5 Preview 2 (May 2020) -->
<Bundle xmlns="http://hl7.org/fhir">
	<type value="collection"/>
	<!-- Repeat at this level per document -->
	<entry>
		<fullUrl value="urn:uuid:152916b7-2142-42cf-9300-434ef060a394"/>
		<!-- Top level of each document is a also FHIR Bundle, of type "document"
		 see http://hl7.org/fhir/documents.html, http://hl7.org/fhir/bundle.html
	 	 All the other resources for this document are within this. -->
		<resource>
            <Bundle>
            	<!-- When PUTing, some servers mandate an id here to match the existing id -->
            	<id value="c707f6e1-0fe5-45f5-9357-c1268c6413b8"/>
				<!-- document bundles must have an identifier (bdl-9) -->
				<identifier>
					<!-- possibly different identifier types may be needed here -->
					<system value="http://ema.europa.eu/fhir/identifier/documentid"/>
					<value value="${instance.bundle[n].Identifier}"/>
				</identifier>
				<!-- fixed code -->
				<type value="document" /> 
            	<!-- document bundles must have a date (bdl-10) -->
            	<timestamp value="2021-05-17T19:56:41Z"/>
				<!-- a repeating set of entry elements, each with a FHIR resource inside -->
				<entry>
					<!-- fullUrl is mandatory for each entry in document Bundle. It is a random uuid. http://build.fhir.org/bundle.html#bundle-unique -->
					<fullUrl value="urn:uuid:62ca1a2a-17b7-4175-80be-1d025ee3448a"/>
					<resource>
						<!-- the first resource must be Composition (bdl-11) -->
						<!-- This is the overall document structure. -->
						<!-- see definition http://hl7.org/fhir/composition.html, and similar for other resources -->
                        <Composition>
                        	<!-- images if requied within html text of this document -->
							
							<contained>
                                <Binary>
                                	<id value="image0"/>
                                	<!-- example format -->
                                	<contentType value="image/png"/>
									<!-- data is base 64 encoded, actual bytes of the image png file -->
                                	<data value=""/>
								</Binary>
							</contained>
							<!-- this exension is necessary per image -->
                <extension url="http://ema.europa.eu/fhir/extension/dummyValidationReference">
                        		<valueReference>
                        			<reference value="#image0"/>
                        		</valueReference>
               </extension>
              
							<contained>
                                <Binary>
                                	<id value="image1"/>
                                	<!-- example format -->
                                	<contentType value="image/png"/>
									<!-- data is base 64 encoded, actual bytes of the image png file -->
                                	<data value=""/>
								</Binary>
							</contained>
							<!-- this exension is necessary per image -->
                <extension url="http://ema.europa.eu/fhir/extension/dummyValidationReference">
                        		<valueReference>
                        			<reference value="#image1"/>
                        		</valueReference>
               </extension>
              
							<contained>
                                <Binary>
                                	<id value="image2"/>
                                	<!-- example format -->
                                	<contentType value="image/png"/>
									<!-- data is base 64 encoded, actual bytes of the image png file -->
                                	<data value=""/>
								</Binary>
							</contained>
							<!-- this exension is necessary per image -->
                <extension url="http://ema.europa.eu/fhir/extension/dummyValidationReference">
                        		<valueReference>
                        			<reference value="#image2"/>
                        		</valueReference>
               </extension>
              
							<contained>
                                <Binary>
                                	<id value="image3"/>
                                	<!-- example format -->
                                	<contentType value="image/png"/>
									<!-- data is base 64 encoded, actual bytes of the image png file -->
                                	<data value=""/>
								</Binary>
							</contained>
							<!-- this exension is necessary per image -->
                <extension url="http://ema.europa.eu/fhir/extension/dummyValidationReference">
                        		<valueReference>
                        			<reference value="#image3"/>
                        		</valueReference>
               </extension>
              
              
              <contained>
                          <Binary>
                            <id value="stylesheet0"/>
                            <!-- example format -->
                            <contentType value="stylesheet/css"/>
                            <!-- data is base 64 encoded, actual bytes of the image png file -->
                            <data value=""/>
                          </Binary>
                        </contained>
                        <!-- this exension is necessary per image -->
                        <extension url="http://ema.europa.eu/fhir/extension/dummyValidationReference">
                          <valueReference>
                            <reference value="#stylesheet0"/>
                          </valueReference>
                        </extension>
              
              <status value="final"/>
							<!-- document type -->
							<type>
								<coding>
									<system value="http://spor.ema.europa.eu/v1/lists/100000155531"/>
									<code value="${document[n].documentTypeCode}"/>
									<display value="${document[n].documentTypeDisplay}"/>
								</coding>
							</type>
							<subject>
								<!-- links to the List resource in this bundle - local url format -->
								<reference value="[]"/> <!-- local url format -->
								<!--reference value="${instance.bundle[n].listUuid}"/--> <!-- uuid url format. Possible alternate format may be neeed -->
							</subject>
                        	<!-- mandatory date of the document -->
                        	<date value="2021-02-01"/>
							<author>
								<identifier>
									<system value="http://spor.ema.europa.eu/v1/locations" />
									<value value="" />
								</identifier>
							</author>
                        	<title value="${document[n].title}"/>
							<relatesTo>
								<code value="appends"/>
								<targetReference>
									<!-- reference to another Composition -->
									<reference value="${document[n].relatesTo}"/>
								</targetReference>
							</relatesTo>
							<!-- main sections of the document, to follow the QRD template -->
	               			
<section>
	
		
			<title value="B. PACKAGE LEAFLET"/>
				<code>
					<coding>
						<system value="http://spor.ema.europa.eu/v1/example-sections"/>
						<code value="${document[n].section[n].subsection[n].typeCode}"/>
						<display value="${document[n].section[n].subsection[n].typeDisplay}"/>
					</coding>
				</code>
		<text>
			<status value="additional"/>
			<div xmlns="http://www.w3.org/1999/xhtml">
		    <p align="center" class="MsoNormal" style="text-align:center;line-height:normal"></p><b><span lang="EN-GB" style='font-size:11.0pt;font-family:"Times New Roman",serif'><br clear="all" style="page-break-before:always"/> </span></b><span lang="EN-GB" style='font-size:11.0pt;font-family:"Times New Roman",serif'><br clear="all" style="page-break-before:always"/> </span><br clear="all" style="page-break-before:always"/><p align="center" class="MsoNormal" style="text-align:center;line-height:normal"><b><span lang="EN-GB">Package leaflet: information for the user</span></b></p><p align="center" class="MsoNormal" style="text-align:center;line-height:normal"></p><p align="center" class="MsoNormal" style="text-align:center;line-height:normal"><b><span lang="EN-GB">ELOCTA 250 IU powder and solvent for solution for injection</span></b></p><p align="center" class="MsoNormal" style="text-align:center;line-height:normal"><b><span lang="EN-GB">ELOCTA 500 IU powder and solvent for solution for injection</span></b></p><p align="center" class="MsoNormal" style="text-align:center;line-height:normal"><b><span lang="EN-GB">ELOCTA 750 IU powder and solvent for solution for injection</span></b></p><p align="center" class="MsoNormal" style="text-align:center;line-height:normal"><b><span lang="EN-GB">ELOCTA 1000 IU powder and solvent for solution for injection</span></b></p><p align="center" class="MsoNormal" style="text-align:center;line-height:normal"><b><span lang="EN-GB">ELOCTA 1500 IU powder and solvent for solution for injection</span></b></p><p align="center" class="MsoNormal" style="text-align:center;line-height:normal"><b><span lang="EN-GB">ELOCTA 2000 IU powder and solvent for solution for injection</span></b></p><p align="center" class="MsoNormal" style="text-align:center;line-height:normal"><b><span lang="EN-GB">ELOCTA 3000 IU powder and solvent for solution for injection</span></b></p><p align="center" class="MsoNormal" style="text-align:center;line-height:normal"><b><span lang="EN-GB">ELOCTA 4000 IU powder and solvent for solution for injection</span></b></p><p align="center" class="MsoNormal" style="text-align:center;line-height:normal"></p><p align="center" class="MsoNormal" style="text-align:center;line-height:normal"><span lang="EN-GB">efmoroctocog alfa (</span><span lang="EN-GB">recombinant coagulation factor VIII)</span></p><p align="center" class="MsoNormal" style="text-align:center;line-height:normal"></p><p class="MsoNormal" style="line-height:normal"><b><span lang="EN-GB">Read all of this leaflet carefully before you start using this medicine because it contains important information for you</span></b></p><p class="MsoListParagraphCxSpFirst" style="margin-left:28.35pt;text-indent:-28.35pt"><span lang="EN-GB" style="font-size:11.0pt;font-family:Symbol"></span><span lang="EN-GB" style="font-size:11.0pt">Keep this leaflet. You may need to read it again. </span></p><p class="MsoListParagraphCxSpMiddle" style="margin-left:28.35pt;text-indent: -28.35pt"><span lang="EN-GB" style="font-size:11.0pt;font-family:Symbol"></span><span lang="EN-GB" style="font-size:11.0pt">If you have any further questions, ask your doctor, pharmacist or nurse. </span></p><p class="MsoListParagraphCxSpMiddle" style="margin-left:28.35pt;text-indent: -28.35pt"><span lang="EN-GB" style="font-size:11.0pt;font-family:Symbol"></span><span lang="EN-GB" style="font-size:11.0pt">This medicine has been prescribed for you only. Do not pass it on to others. It may harm them, even if their signs of illness are the same as yours. </span></p><p class="MsoListParagraphCxSpLast" style="margin-left:28.35pt;text-indent:-28.35pt"><span lang="EN-GB" style="font-size:11.0pt;font-family:Symbol"></span><span lang="EN-GB" style="font-size:11.0pt">If you get any side effects, talk to your doctor, pharmacist or nurse. This includes any possible side effects not listed in this leaflet. See section 4.</span></p><p class="MsoNormal" style="line-height:normal"></p>
			</div>
		</text>
		
		
    	    
				
			    
						
		               
<section>
			<title value="What is in this leaflet"/>
				<code>
					<coding>
						<system value="http://spor.ema.europa.eu/v1/example-sections"/>
						<code value="${document[n].section[n].subsection[n].typeCode}"/>
						<display value="${document[n].section[n].subsection[n].typeDisplay}"/>
					</coding>
				</code>
		<text>
			<status value="additional"/>
			<div xmlns="http://www.w3.org/1999/xhtml">
		    
			</div>
		</text>
		
    	    
		
</section>
			    
    	    
				
			    
						
		               
<section>
			<title value="1.What ELOCTA is and what it is used for "/>
				<code>
					<coding>
						<system value="http://spor.ema.europa.eu/v1/example-sections"/>
						<code value="${document[n].section[n].subsection[n].typeCode}"/>
						<display value="${document[n].section[n].subsection[n].typeDisplay}"/>
					</coding>
				</code>
		<text>
			<status value="additional"/>
			<div xmlns="http://www.w3.org/1999/xhtml">
		    
			</div>
		</text>
		
    	    
		
</section>
			    
    	    
				
			    
						
		               
<section>
			<title value="2.What you need to know before you use ELOCTA"/>
				<code>
					<coding>
						<system value="http://spor.ema.europa.eu/v1/example-sections"/>
						<code value="${document[n].section[n].subsection[n].typeCode}"/>
						<display value="${document[n].section[n].subsection[n].typeDisplay}"/>
					</coding>
				</code>
		<text>
			<status value="additional"/>
			<div xmlns="http://www.w3.org/1999/xhtml">
		    <p class="MsoListParagraphCxSpMiddle" style="margin-left:28.35pt;text-indent: -28.35pt"><span lang="EN-GB" style="font-size:11.0pt">3.</span><span lang="EN-GB" style="font-size:11.0pt">How to use ELOCTA </span></p>
			</div>
		</text>
		
    	    
		
</section>
			    
    	    
				
			    
						
		               
<section>
			<title value="4.Possible side effects "/>
				<code>
					<coding>
						<system value="http://spor.ema.europa.eu/v1/example-sections"/>
						<code value="${document[n].section[n].subsection[n].typeCode}"/>
						<display value="${document[n].section[n].subsection[n].typeDisplay}"/>
					</coding>
				</code>
		<text>
			<status value="additional"/>
			<div xmlns="http://www.w3.org/1999/xhtml">
		    
			</div>
		</text>
		
    	    
		
</section>
			    
    	    
				
			    
						
		               
<section>
			<title value="5.How to store ELOCTA"/>
				<code>
					<coding>
						<system value="http://spor.ema.europa.eu/v1/example-sections"/>
						<code value="${document[n].section[n].subsection[n].typeCode}"/>
						<display value="${document[n].section[n].subsection[n].typeDisplay}"/>
					</coding>
				</code>
		<text>
			<status value="additional"/>
			<div xmlns="http://www.w3.org/1999/xhtml">
		    
			</div>
		</text>
		
    	    
		
</section>
			    
    	    
				
			    
						
		               
<section>
			<title value="6.Contents of the pack and other information"/>
				<code>
					<coding>
						<system value="http://spor.ema.europa.eu/v1/example-sections"/>
						<code value="${document[n].section[n].subsection[n].typeCode}"/>
						<display value="${document[n].section[n].subsection[n].typeDisplay}"/>
					</coding>
				</code>
		<text>
			<status value="additional"/>
			<div xmlns="http://www.w3.org/1999/xhtml">
		    <p class="MsoNormal" style="line-height:normal"></p><p class="MsoNormal" style="line-height:normal"></p>
			</div>
		</text>
		
    	    
		
</section>
			    
    	    
		
	
		
		
    	    
				
			    
						
		               
<section>
			<title value="1.       What ELOCTA is and what it is used for"/>
				<code>
					<coding>
						<system value="http://spor.ema.europa.eu/v1/example-sections"/>
						<code value="${document[n].section[n].subsection[n].typeCode}"/>
						<display value="${document[n].section[n].subsection[n].typeDisplay}"/>
					</coding>
				</code>
		<text>
			<status value="additional"/>
			<div xmlns="http://www.w3.org/1999/xhtml">
		    <p class="MsoListParagraphCxSpLast" style="margin-left:0in;page-break-after:avoid"></p><p class="MsoNormal" style="line-height:normal"><span lang="EN-GB">ELOCTA contains the active substance efmoroctocog alfa, a recombinant </span><span lang="EN-GB">coagulation factor VIII, Fc fusion protein. Factor VIII is a protein produced naturally in the body and is necessary for the blood to form clots and stop bleeding. </span></p><p class="MsoNormal" style="line-height:normal"></p><p class="MsoNormal" style="line-height:normal"><span lang="EN-GB">ELOCTA is a medicine used for the treatment and prevention of bleeding in all age groups of patients with haemophilia A (inherited bleeding disorder caused by factor VIII deficiency).</span></p><p class="MsoNormal" style="line-height:normal"></p><p class="MsoNormal" style="line-height:normal"><span lang="EN-GB">ELOCTA is prepared by recombinant technology without addition of any human- or animal-derived components in the manufacturing process. </span></p><p class="MsoNormal" style="line-height:normal"></p><p class="MsoNormal" style="line-height:normal;page-break-after:avoid"><b><span lang="EN-GB">How </span></b><b><span lang="EN-GB">ELOCTA works</span></b></p><p class="MsoNormal" style="line-height:normal"><span lang="EN-GB">In patients with haemophilia A</span><span lang="EN-GB">, factor VIII is missing or not working properly. ELOCTA is used to replace the missing or deficient factor VIII. ELOCTA increases factor VIII level in the blood and temporarily corrects the bleeding tendency.</span></p><p class="MsoNormal" style="line-height:normal"></p><p class="MsoNormal" style="line-height:normal"></p>
			</div>
		</text>
		
    	    
		
</section>
			    
    	    
				
			    
						
		               
<section>
			<title value="2.       What you need to know before you use ELOCTA"/>
				<code>
					<coding>
						<system value="http://spor.ema.europa.eu/v1/example-sections"/>
						<code value="${document[n].section[n].subsection[n].typeCode}"/>
						<display value="${document[n].section[n].subsection[n].typeDisplay}"/>
					</coding>
				</code>
		<text>
			<status value="additional"/>
			<div xmlns="http://www.w3.org/1999/xhtml">
		    <p class="MsoNormal" style="line-height:normal;page-break-after:avoid"></p><p class="MsoNormal" style="line-height:normal;page-break-after:avoid"><b><span lang="EN-GB">Do not use ELOCTA:</span></b></p><p class="MsoNormal" style="margin-left:28.35pt;text-indent:-28.35pt;line-height: normal;page-break-after:avoid"><span lang="EN-GB" style="font-family:Symbol"></span><span lang="EN-GB">if you are allergic to efmoroctocog alfa or any other ingredients of this medicine (listed in section 6).</span></p><p class="MsoNormal" style="line-height:normal;page-break-after:avoid"></p>
			</div>
		</text>
		
    	    

			    
		               
<section>
			<title value="Warnings and precautions "/>
				<code>
					<coding>
						<system value="http://spor.ema.europa.eu/v1/example-sections"/>
						<code value="${document[n].section[n].subsection[n].typeCode}"/>
						<display value="${document[n].section[n].subsection[n].typeDisplay}"/>
					</coding>
				</code>
		<text>
			<status value="additional"/>
			<div xmlns="http://www.w3.org/1999/xhtml">
		    <p class="MsoNormal" style="line-height:normal;page-break-after:avoid"><span lang="EN-GB">Talk to your doctor, pharmacist or nurse before using ELOCTA.</span></p><p class="MsoNormal" style="line-height:normal;page-break-after:avoid"></p><p class="MsoNormal" style="margin-left:28.35pt;text-indent:-28.35pt;line-height: normal"><span lang="EN-GB" style="font-family:Symbol"></span><span lang="EN-GB">There is a small chance that you may experience an anaphylactic reaction (a severe, sudden allergic reaction) to ELOCTA. Signs of allergic reactions may include generalised itching, hives, tightness of the chest, difficulty breathing and low blood pressure. If any of these symptoms occur, stop the injection immediately and contact your doctor.</span></p><p class="MsoNormal" style="margin-left:28.35pt;text-indent:-28.35pt;line-height: normal"></p><p class="MsoNormal" style="margin-left:28.35pt;text-indent:-28.35pt;line-height: normal"><span lang="EN-GB" style="font-family:Symbol"></span><span lang="EN-GB">The formation of inhibitors (antibodies) is a known complication that can occur during treatment with all factor VIII medicines. These inhibitors, especially at high levels, stop the treatment working properly and you or your child will be monitored carefully for the development of these inhibitors. If your or your childs bleeding is not being controlled with ELOCTA, tell your doctor immediately.</span></p><p class="MsoListParagraphCxSpFirst" style="margin-left:0in"><u><span style="font-size:11.0pt"></span></u></p><p class="MsoListParagraphCxSpMiddle" style="margin-left:0in;page-break-after: avoid"><a name="_Hlk42693946"><u><span style="font-size:11.0pt">Cardiovascular events</span></u></a></p><p class="MsoListParagraphCxSpMiddle" style="margin-left:0in"><span style="font-size:11.0pt">If you have heart disease or are at risk for heart disease, take special care when using factor VIII medicines and talk to your doctor.</span></p><p class="MsoListParagraphCxSpLast" style="margin-left:0in"><u><span style="font-size:11.0pt"></span></u></p><p class="MsoNormal" style="line-height:normal;page-break-after:avoid"><u><span lang="EN-GB">Catheter-related complications</span></u></p><p class="MsoNormal" style="line-height:normal"><span lang="EN-GB">If you require a central venous access device (CVAD), risk of CVAD-related complications including local infections, presence of bacteria in the blood and catheter site thrombosis should be considered.</span></p><p class="MsoNormal" style="line-height:normal"></p><p class="MsoNormal" style="line-height:normal;page-break-after:avoid"><u><span lang="EN-GB">Documentation</span></u></p><p class="MsoNormal" style="line-height:normal"><span lang="EN-GB">It is strongly recommended that every time ELOCTA is given, the name and batch number of the product are recorded.</span></p><p class="MsoNormal" style="line-height:normal"></p>
			</div>
		</text>
		
    	    
		
</section>
			    
    	    

			    
		               
<section>
			<title value="Other medicines and ELOCTA"/>
				<code>
					<coding>
						<system value="http://spor.ema.europa.eu/v1/example-sections"/>
						<code value="${document[n].section[n].subsection[n].typeCode}"/>
						<display value="${document[n].section[n].subsection[n].typeDisplay}"/>
					</coding>
				</code>
		<text>
			<status value="additional"/>
			<div xmlns="http://www.w3.org/1999/xhtml">
		    <p class="MsoNormal" style="line-height:normal"><span lang="EN-GB">Tell your doctor or pharmacist if you are using, have recently used or might use any other medicines.</span></p><p class="MsoNormal" style="line-height:normal"></p>
			</div>
		</text>
		
    	    
		
</section>
			    
    	    

			    
		               
<section>
			<title value="Pregnancy and breast-feeding "/>
				<code>
					<coding>
						<system value="http://spor.ema.europa.eu/v1/example-sections"/>
						<code value="${document[n].section[n].subsection[n].typeCode}"/>
						<display value="${document[n].section[n].subsection[n].typeDisplay}"/>
					</coding>
				</code>
		<text>
			<status value="additional"/>
			<div xmlns="http://www.w3.org/1999/xhtml">
		    <p class="MsoNormal" style="line-height:normal"><span lang="EN-GB">If you are pregnant or breast-feeding, think you may be pregnant or are planning to have a baby, ask your doctor or pharmacist for advice before taking this medicine.</span></p><p class="MsoNormal" style="line-height:normal"></p>
			</div>
		</text>
		
    	    
		
</section>
			    
    	    

			    
		               
<section>
			<title value="Driving and using machines "/>
				<code>
					<coding>
						<system value="http://spor.ema.europa.eu/v1/example-sections"/>
						<code value="${document[n].section[n].subsection[n].typeCode}"/>
						<display value="${document[n].section[n].subsection[n].typeDisplay}"/>
					</coding>
				</code>
		<text>
			<status value="additional"/>
			<div xmlns="http://www.w3.org/1999/xhtml">
		    <p class="MsoNormal" style="line-height:normal"><span lang="EN-GB">No effects on ability to drive or use of machines have been observed.</span></p><p class="MsoNormal" style="line-height:normal"></p>
			</div>
		</text>
		
    	    
		
</section>
			    
    	    

			    
		               
<section>
			<title value="ELOCTA contains sodium"/>
				<code>
					<coding>
						<system value="http://spor.ema.europa.eu/v1/example-sections"/>
						<code value="${document[n].section[n].subsection[n].typeCode}"/>
						<display value="${document[n].section[n].subsection[n].typeDisplay}"/>
					</coding>
				</code>
		<text>
			<status value="additional"/>
			<div xmlns="http://www.w3.org/1999/xhtml">
		    <p class="MsoNormal" style="line-height:normal"><span lang="EN-GB">This medicine contains less than 1 mmol sodium (23 mg) per vial, that is to say essentially sodium-free.</span></p><p class="MsoNormal" style="line-height:normal">However, depending on your body weight and dose, you could receive more than one vial. This should be taken into consideration if you are on a controlled sodium diet.</p><p class="MsoNormal" style="line-height:normal"></p><p class="MsoNormal" style="line-height:normal"></p>
			</div>
		</text>
		
    	    
		
</section>
			    
    	    
		
</section>
			    
    	    
				
			    
						
		               
<section>
			<title value="3.       How to use ELOCTA"/>
				<code>
					<coding>
						<system value="http://spor.ema.europa.eu/v1/example-sections"/>
						<code value="${document[n].section[n].subsection[n].typeCode}"/>
						<display value="${document[n].section[n].subsection[n].typeDisplay}"/>
					</coding>
				</code>
		<text>
			<status value="additional"/>
			<div xmlns="http://www.w3.org/1999/xhtml">
		    <p class="MsoNormal" style="line-height:normal;page-break-after:avoid"></p><p class="MsoNormal" style="line-height:normal"><span lang="EN-GB">Treatment with ELOCTA will be started by a doctor who is experienced in the care of patients with haemophilia. Always use this medicine exactly as your doctor has told you (see </span><span lang="EN-GB">Instructions for preparation and administration</span><span lang="EN-GB">). Check with your doctor, pharmacist or nurse if you are not sure.</span></p><p class="MsoNormal" style="line-height:normal"></p><p class="MsoNormal" style="line-height:normal"><span lang="EN-GB">ELOCTA is given as an injection into a vein. </span><span lang="EN-GB">Your doctor will calculate the dose of ELOCTA (in International Units or IU) depending on your individual needs for factor VIII replacement therapy and on whether it is used for prevention or treatment of bleeding. Talk to your doctor if you think that your bleeding is not being controlled with the dose you receive.</span></p><p class="MsoNormal" style="line-height:normal"></p><p class="MsoNormal" style="line-height:normal"><span lang="EN-GB">How often you need an injection will depend on how well ELOCTA is working for you. Your doctor will perform appropriate laboratory tests to make sure that you have adequate factor VIII levels in your blood. </span></p><p class="MsoNormal" style="line-height:normal"></p><p class="MsoNormal" style="line-height:normal;page-break-after:avoid"><b><span lang="EN-GB">Treatment of bleeding </span></b></p><p class="MsoNormal" style="line-height:normal"><span lang="EN-GB">The dose of ELOCTA is calculated depending on your body weight and the factor VIII levels to be achieved. The target factor VIII levels will depend on the severity and location of the bleeding.</span></p><p class="MsoNormal" style="line-height:normal"></p><p class="MsoNormal" style="line-height:normal;page-break-after:avoid"><b><span lang="EN-GB">Prevention of bleeding</span></b></p><p class="MsoNormal" style="line-height:normal"><span lang="EN-GB">The usual dose of ELOCTA is 50 IU per kg of body weight, given every 3 to 5 days. The dose may be adjusted by your doctor in the range of 25 to 65 IU per kg of body weight. In some cases, especially in younger patients, shorter dosing intervals or higher doses may be necessary.</span></p><p class="MsoNormal" style="line-height:normal"></p>
			</div>
		</text>
		
    	    

			    
		               
<section>
			<title value="Use in children and adolescents"/>
				<code>
					<coding>
						<system value="http://spor.ema.europa.eu/v1/example-sections"/>
						<code value="${document[n].section[n].subsection[n].typeCode}"/>
						<display value="${document[n].section[n].subsection[n].typeDisplay}"/>
					</coding>
				</code>
		<text>
			<status value="additional"/>
			<div xmlns="http://www.w3.org/1999/xhtml">
		    <p class="MsoNormal" style="line-height:normal"><span lang="EN-GB">ELOCTA can be used in children and adolescents of all ages. In children below the age of 12, higher doses or more frequent injections may be needed.</span></p><p class="MsoNormal" style="line-height:normal"></p>
			</div>
		</text>
		
    	    
		
</section>
			    
    	    

			    
		               
<section>
			<title value="If you use more ELOCTA than you should"/>
				<code>
					<coding>
						<system value="http://spor.ema.europa.eu/v1/example-sections"/>
						<code value="${document[n].section[n].subsection[n].typeCode}"/>
						<display value="${document[n].section[n].subsection[n].typeDisplay}"/>
					</coding>
				</code>
		<text>
			<status value="additional"/>
			<div xmlns="http://www.w3.org/1999/xhtml">
		    <p class="MsoNormal" style="line-height:normal"><span lang="EN-GB">Tell your doctor as soon as possible. You should always use ELOCTA exactly as your doctor has told you, check with your doctor, pharmacist or nurse if you are not sure.</span></p><p class="MsoNormal" style="line-height:normal"></p>
			</div>
		</text>
		
    	    
		
</section>
			    
    	    

			    
		               
<section>
			<title value="If you forget to use ELOCTA"/>
				<code>
					<coding>
						<system value="http://spor.ema.europa.eu/v1/example-sections"/>
						<code value="${document[n].section[n].subsection[n].typeCode}"/>
						<display value="${document[n].section[n].subsection[n].typeDisplay}"/>
					</coding>
				</code>
		<text>
			<status value="additional"/>
			<div xmlns="http://www.w3.org/1999/xhtml">
		    <p class="MsoNormal" style="line-height:normal"><span lang="EN-GB">Do not take a double dose to make up for a forgotten dose. Take your dose as soon as you remember and then resume your normal dosing schedule. If you are not sure what to do, ask your doctor or pharmacist.</span></p><p class="MsoNormal" style="line-height:normal"></p>
			</div>
		</text>
		
    	    
		
</section>
			    
    	    

			    
		               
<section>
			<title value="If you stop using ELOCTA"/>
				<code>
					<coding>
						<system value="http://spor.ema.europa.eu/v1/example-sections"/>
						<code value="${document[n].section[n].subsection[n].typeCode}"/>
						<display value="${document[n].section[n].subsection[n].typeDisplay}"/>
					</coding>
				</code>
		<text>
			<status value="additional"/>
			<div xmlns="http://www.w3.org/1999/xhtml">
		    <p class="MsoNormal" style="line-height:normal"><span lang="EN-GB">Do not stop using ELOCTA without consulting your doctor. If you stop using ELOCTA you may no longer be protected against bleeding or a current bleed may not stop.</span></p><p class="MsoNormal" style="line-height:normal"></p><p class="MsoNormal" style="line-height:normal"><span lang="EN-GB">If you have any further questions on the use of this medicine, ask your doctor, pharmacist or nurse.</span></p><p class="MsoNormal" style="line-height:normal"></p><p class="MsoNormal" style="line-height:normal"></p>
			</div>
		</text>
		
    	    
		
</section>
			    
    	    
		
</section>
			    
    	    
				
			    
						
		               
<section>
			<title value="4.       Possible side effects "/>
				<code>
					<coding>
						<system value="http://spor.ema.europa.eu/v1/example-sections"/>
						<code value="${document[n].section[n].subsection[n].typeCode}"/>
						<display value="${document[n].section[n].subsection[n].typeDisplay}"/>
					</coding>
				</code>
		<text>
			<status value="additional"/>
			<div xmlns="http://www.w3.org/1999/xhtml">
		    <p class="MsoNormal" style="line-height:normal;page-break-after:avoid"></p><p class="MsoNormal" style="line-height:normal"><span lang="EN-GB">Like all medicines, this medicine can cause side effects, although not everybody gets them.</span></p><p class="MsoNormal" style="line-height:normal"></p><p class="MsoNormal" style="line-height:normal"><span lang="EN-GB">If severe, sudden allergic reactions (anaphylactic reaction) occur, the injection must be stopped immediately. You must contact your doctor immediately if you experience any of the following symptoms of allergic reactions: swelling of the face, rash, generalised itching, hives, tightness of the chest, difficulty breathing</span><span lang="EN-GB">, </span><span lang="EN-GB">burning and stinging at the injection site, chills, flushing, headache, low blood pressure, general feeling of being unwell, nausea, restlessness and fast heartbeat, feeling dizzy or loss of consciousness.</span></p><p class="MsoNormal" style="line-height:normal"></p><p class="MsoNormal" style="line-height:normal"><span lang="EN-GB">For children </span><span lang="EN-GB">previously untreated </span><span lang="EN-GB">with factor VIII medicines, inhibitor antibodies (see section 2) may form very commonly (more than 1 in 10 patients); however, patients who have received previous treatment with factor VIII (more than 150 days of treatment) the risk is uncommon (less than 1 in 100 patients). If this happens the medicines may stop working properly and you may experience persistent bleeding. If this happens, you should contact your doctor immediately.</span></p><p class="MsoNormal" style="line-height:normal"></p><p class="MsoNormal" style="line-height:normal"><span lang="EN-GB">The following side effects may occur with this medicine.</span></p><p class="MsoNormal" style="line-height:normal"></p><p class="MsoNormal" style="line-height:normal;page-break-after:avoid"><b><span lang="EN-GB">Uncommon side effects (may affect up to 1 in 100 people)</span></b></p><p class="MsoNormal" style="line-height:normal"><span lang="EN-GB">Headache, dizziness, taste alteration, slow heartbeat, high blood pressure, hot flushes, vascular pain after injection, cough, lower abdominal pain, rash, papular rash, device-related thrombosis, joint swelling, muscle pain, back pain, joint pain, general discomfort, chest pain, feeling cold, feeling hot and low blood pressure.</span></p><p class="MsoNormal" style="line-height:normal"></p>
			</div>
		</text>
		
    	    

			    
		               
<section>
			<title value="Reporting of side effects "/>
				<code>
					<coding>
						<system value="http://spor.ema.europa.eu/v1/example-sections"/>
						<code value="${document[n].section[n].subsection[n].typeCode}"/>
						<display value="${document[n].section[n].subsection[n].typeDisplay}"/>
					</coding>
				</code>
		<text>
			<status value="additional"/>
			<div xmlns="http://www.w3.org/1999/xhtml">
		    <p class="MsoNormal" style="line-height:normal"><span lang="EN-GB">If you get any side effects, talk to your doctor, pharmacist or nurse. This includes any possible side effects not listed in this leaflet. You can also report side effects directly via <span style="color:black;background:#D9D9D9">the national reporting system listed in </span><a href="http://www.ema.europa.eu/docs/en_GB/document_library/Template_or_form/2013/03/WC500139752.doc"><span style="background:#D9D9D9">Appendix V</span></a>. By reporting side effects, you can help provide more information on the safety of this medicine.</span></p><p class="MsoNormal" style="line-height:normal"></p><p class="MsoNormal" style="line-height:normal"></p>
			</div>
		</text>
		
    	    
		
</section>
			    
    	    
		
</section>
			    
    	    
				
			    
						
		               
<section>
			<title value="5.       How to store ELOCTA"/>
				<code>
					<coding>
						<system value="http://spor.ema.europa.eu/v1/example-sections"/>
						<code value="${document[n].section[n].subsection[n].typeCode}"/>
						<display value="${document[n].section[n].subsection[n].typeDisplay}"/>
					</coding>
				</code>
		<text>
			<status value="additional"/>
			<div xmlns="http://www.w3.org/1999/xhtml">
		    <p class="MsoNormal" style="line-height:normal;page-break-after:avoid"></p><p class="MsoNormal" style="line-height:normal;page-break-after:avoid"><span lang="EN-GB">Keep this medicine out of the sight and reach of children.</span></p><p class="MsoNormal" style="line-height:normal;page-break-after:avoid"></p><p class="MsoNormal" style="line-height:normal"><span lang="EN-GB">Do not use this medicine after the expiry date which is stated on the carton and the vial label after EXP. The expiry date refers to the last day of that month. Do not use this medicine if it has been stored at room temperature for longer than 6 months.</span></p><p class="MsoNormal" style="line-height:normal"></p><p class="MsoNormal" style="line-height:normal"><span lang="EN-GB">Store in a refrigerator (2C - 8C).</span></p><p class="MsoNormal" style="line-height:normal"><span lang="EN-GB">Do not freeze.</span></p><p class="MsoNormal" style="line-height:normal"><span lang="EN-GB">Store in the original package in order to protect from light.</span></p><p class="MsoNormal" style="line-height:normal"></p><p class="MsoNormal" style="line-height:normal"><span lang="EN-GB">Alternatively, ELOCTA may be stored at room temperature (up to 30C) for a single period not exceeding 6 months. Record on the carton the date that ELOCTA is removed from the refrigerator and set at room temperature. After storage at room temperature, the product must not be put back in the refrigerator.</span></p><p class="MsoNormal" style="line-height:normal"></p><p class="MsoNormal" style="line-height:normal"><span lang="EN-GB">Once you have prepared ELOCTA it should be used right away. If you cannot use the prepared ELOCTA solution immediately, it should be used within 6 hours. Do not refrigerate the prepared solution. Protect the prepared solution from direct sunlight.</span></p><p class="MsoNormal" style="line-height:normal"></p><p class="MsoNormal" style="line-height:normal"><span lang="EN-GB">The prepared solution will be clear to slightly opalescent and colourless. Do not use this medicine if you notice that it is cloudy or contains visible particles.</span></p><p class="MsoNormal" style="line-height:normal"></p><p class="MsoNormal" style="line-height:normal"><span lang="EN-GB">Discard any unused solution appropriately. Do not throw away any medicines via wastewater or household waste. Ask your pharmacist how to throw away medicines you no longer use. These measures will help protect the environment.</span></p><p class="MsoNormal" style="line-height:normal"></p><p class="MsoNormal" style="line-height:normal"></p>
			</div>
		</text>
		
    	    
		
</section>
			    
    	    
				
			    
						
		               
<section>
			<title value="6.       Contents of the pack and other information"/>
				<code>
					<coding>
						<system value="http://spor.ema.europa.eu/v1/example-sections"/>
						<code value="${document[n].section[n].subsection[n].typeCode}"/>
						<display value="${document[n].section[n].subsection[n].typeDisplay}"/>
					</coding>
				</code>
		<text>
			<status value="additional"/>
			<div xmlns="http://www.w3.org/1999/xhtml">
		    <p class="MsoNormal" style="line-height:normal;page-break-after:avoid"></p>
			</div>
		</text>
		
    	    

			    
		               
<section>
			<title value="What ELOCTA contains"/>
				<code>
					<coding>
						<system value="http://spor.ema.europa.eu/v1/example-sections"/>
						<code value="${document[n].section[n].subsection[n].typeCode}"/>
						<display value="${document[n].section[n].subsection[n].typeDisplay}"/>
					</coding>
				</code>
		<text>
			<status value="additional"/>
			<div xmlns="http://www.w3.org/1999/xhtml">
		    <p class="MsoNormal" style="line-height:normal;page-break-after:avoid"><u><span lang="EN-GB"></span></u></p><p class="MsoNormal" style="margin-left:28.35pt;text-indent:-28.35pt;line-height: normal"><span lang="EN-GB" style="font-family:Symbol"></span><span lang="EN-GB">The active substance is efmoroctocog alfa (recombinant coagulation factor VIII, Fc fusion protein). Each vial of ELOCTA contains nominally 250, 500, 750, 1000, 1500, 2000, 3000 or 4000 IU efmoroctocog alfa.</span></p><p class="MsoNormal" style="margin-left:28.35pt;text-indent:-28.35pt;line-height: normal"><span lang="EN-GB" style="font-family:Symbol"></span><span lang="EN-GB">The other ingredients are sucrose, sodium chloride, histidine, calcium chloride dihydrate, polysorbate 20, sodium hydroxide, hydrochloric acid and water for injections. If you are on a controlled sodium diet, see section 2.</span></p><p class="MsoNormal" style="line-height:normal"><u><span lang="EN-GB"></span></u></p>
			</div>
		</text>
		
    	    
		
</section>
			    
    	    

			    
		               
<section>
			<title value="What ELOCTA looks like and contents of the pack"/>
				<code>
					<coding>
						<system value="http://spor.ema.europa.eu/v1/example-sections"/>
						<code value="${document[n].section[n].subsection[n].typeCode}"/>
						<display value="${document[n].section[n].subsection[n].typeDisplay}"/>
					</coding>
				</code>
		<text>
			<status value="additional"/>
			<div xmlns="http://www.w3.org/1999/xhtml">
		    <p class="MsoNormal" style="line-height:normal;page-break-after:avoid"></p><p class="MsoNormal" style="line-height:normal"><span lang="EN-GB">ELOCTA is provided as a powder and solvent for solution for injection. The powder is a white to off-white powder or cake. The solvent provided for preparation of the solution to inject, is </span><span lang="EN-GB">a clear, colourless solution.</span><span lang="EN-GB"> After preparation, the solution to inject is </span><span lang="EN-GB">clear to slightly opalescent and colourless.</span></p><p class="MsoNormal" style="line-height:normal"></p><p class="MsoNormal" style="line-height:normal"><span lang="EN-GB">Each pack of ELOCTA contains 1 powder vial, 3 mL solvent in pre-filled syringe, 1 plunger rod, 1 vial adapter, 1 infusion set, 2 alcohol swabs, 2 plasters and 1 gauze pad.</span></p><p class="MsoNormal" style="line-height:normal"></p>
			</div>
		</text>
		
    	    
		
</section>
			    
    	    

			    
		               
<section>
			<title value="Marketing Authorisation Holder and Manufacturer"/>
				<code>
					<coding>
						<system value="http://spor.ema.europa.eu/v1/example-sections"/>
						<code value="${document[n].section[n].subsection[n].typeCode}"/>
						<display value="${document[n].section[n].subsection[n].typeDisplay}"/>
					</coding>
				</code>
		<text>
			<status value="additional"/>
			<div xmlns="http://www.w3.org/1999/xhtml">
		    <p class="MsoNormal" style="line-height:normal;page-break-after:avoid"><span lang="EN-GB">Swedish Orphan Biovitrum AB (publ) </span></p><p class="MsoNormal" style="line-height:normal;page-break-after:avoid"><span lang="EN-GB">SE-112 76 Stockholm</span></p><p class="MsoNormal" style="line-height:normal"><span lang="EN-GB">Sweden</span></p><p class="MsoNormal" style="line-height:normal"></p>
			</div>
		</text>
		
    	    
		
</section>
			    
    	    

			    
		               
<section>
			<title value="This leaflet was last revised in "/>
				<code>
					<coding>
						<system value="http://spor.ema.europa.eu/v1/example-sections"/>
						<code value="${document[n].section[n].subsection[n].typeCode}"/>
						<display value="${document[n].section[n].subsection[n].typeDisplay}"/>
					</coding>
				</code>
		<text>
			<status value="additional"/>
			<div xmlns="http://www.w3.org/1999/xhtml">
		    <p class="MsoNormal" style="line-height:normal;page-break-after:avoid"></p><p class="MsoNormal" style="line-height:normal"><span lang="EN-GB">Detailed information on this medicine is available on the European Medicines Agency web site: <a href="http://www.ema.europa.eu/">http://www.ema.europa.eu</a></span></p><p class="MsoNormal" style="line-height:normal"></p><p class="MsoNormal" style="line-height:normal"></p><p class="MsoNormal" style="line-height:normal"><span lang="EN-GB">Turn the leaflet over for instructions for preparation and administration</span></p><b><span lang="EN-GB" style='font-size:11.0pt;font-family:"Times New Roman",serif'><br clear="all" style="page-break-before:always"/> </span></b><span lang="EN-GB" style='font-size:11.0pt;font-family:"Times New Roman",serif'><br clear="all" style="page-break-before:always"/> </span><br clear="all" style="page-break-before:always"/><p class="MsoNormal" style="line-height:normal;page-break-after:avoid"><b><span lang="EN-GB">Instructions for preparation and administration</span></b></p><p class="MsoNormal" style="line-height:normal;page-break-after:avoid"></p><p class="MsoNormal" style="line-height:normal"><span lang="EN-GB">ELOCTA is administered by intravenous (IV) injection after dissolving the powder for injection with the solvent supplied in the pre-filled syringe. ELOCTA pack contains:</span></p><p class="MsoNormal" style="line-height:normal"></p><p class="MsoNormal" style="line-height:normal;page-break-after:avoid"></p><p class="MsoNormal" style="line-height:normal;page-break-after:avoid"><span style="position:relative;z-index:251663360"><span style="position:absolute; left:43px;top:-16955px;width:908px;height:1px"> <table align="left" cellpadding="0" cellspacing="0"> <tr> <td height="0" width="0"></td> <td width="492"></td> <td width="66"></td> <td width="350"></td> </tr> <tr> <td height="1"></td> <td align="left" valign="top"><img height="1" src="#image0" width="328"/></td> <td></td> <td align="left" valign="top"><img alt="A) 1 Powder vial B) 3 mL solvent in pre-filled syringe C) 1 Plunger rod  D) 1 Vial adapter E) 1 Infusion set F) 2 Alcohol swabs G) 2 Plasters  H) 1 Gauze pad " height="1" src="#image1" width="233"/></td> </tr> </table> </span></span></p><p class="MsoNormal" style="line-height:normal;page-break-after:avoid"></p><p class="MsoNormal" style="line-height:normal;page-break-after:avoid"></p><p class="MsoNormal" style="line-height:normal;page-break-after:avoid"></p><p class="MsoNormal" style="margin-right:-.1pt;line-height:normal;page-break-after: avoid"></p><p class="MsoNormal" style="margin-right:-.1pt;line-height:normal;page-break-after: avoid"></p><p class="MsoNormal" style="margin-right:-.1pt;line-height:normal"></p><p class="MsoNormal" style="margin-right:-.1pt;line-height:normal"></p><p class="MsoNormal" style="margin-right:-.1pt;line-height:normal"></p><p class="MsoNormal" style="margin-right:-.1pt;line-height:normal"></p><p class="MsoNormal" style="margin-right:-.1pt;line-height:normal"></p><br clear="ALL"/><p class="MsoNormal" style="line-height:normal"><span lang="EN-GB">ELOCTA should not be mixed with other solutions for injection or infusion.</span></p><p class="MsoNormal" style="margin-right:-.1pt;line-height:normal"></p><p class="MsoNormal" style="margin-right:-.1pt;line-height:normal"><span lang="EN-GB">Wash your hands before opening the pack.</span></p><p class="MsoNormal" style="margin-right:-.1pt;line-height:normal"></p><p class="MsoNormal" style="line-height:normal;page-break-after:avoid"><b><span lang="EN-GB">Preparation:</span></b></p><p class="MsoNormal" style="line-height:normal;page-break-after:avoid"></p><p class="MsoNormal" style="line-height:12.0pt"><span lang="EN-GB"><img border="0" height="751" id="Picture 34" src="#image2" width="624"/></span></p><p class="MsoNormal" style="line-height:normal"></p><p class="MsoNormal" style="line-height:normal;page-break-after:avoid"><b><span lang="EN-GB">Administration (Intravenous injection):</span></b></p><p class="MsoListParagraphCxSpFirst" style="margin-top:0in;margin-right:0in; margin-bottom:10.0pt;margin-left:0in;page-break-after:avoid"></p><p class="MsoListParagraphCxSpMiddle" style="margin-top:0in;margin-right:0in; margin-bottom:10.0pt;margin-left:0in;page-break-after:avoid"><span lang="EN-GB" style="font-size:11.0pt">ELOCTA should be administered using the infusion set (E) provided in this pack.</span></p><p class="MsoListParagraphCxSpMiddle" style="margin-top:0in;margin-right:0in; margin-bottom:10.0pt;margin-left:0in;page-break-after:avoid"></p><p class="MsoListParagraphCxSpLast" style="margin-left:0in;line-height:12.0pt"><img border="0" height="675" id="Picture 19" src="#image3" width="624"/></p>
			</div>
		</text>
		
    	    
		
</section>
			    
    	    
		
</section>
			    
    	    
		
	
</section>
							<!-- sections can repeat as necessary -->
						</Composition>
					</resource>
				</entry>
				
			</Bundle>
		</resource>
	</entry>
</Bundle>