<?xml version="1.0" encoding="UTF-8"?>
<!-- This is a template for a FHIR resource, and needs items (marked with "${}") replacing to make a real instance -->
<!-- The resulting instance is a Bundle of Bundles, each of which is a document (having a Composition, and supporting resources) -->
<!-- 2020-02-22 -->
<!-- This is for FHIR version R5 Preview 2 (May 2020) -->
<Bundle xmlns="http://hl7.org/fhir">
	<type value="collection"/>
	<!-- Repeat at this level per document -->
	<entry>
		<fullUrl value="urn:uuid:1c373934-249d-4e4f-9d12-b3adec153d06"/>
		<!-- Top level of each document is a also FHIR Bundle, of type "document"
		 see http://hl7.org/fhir/documents.html, http://hl7.org/fhir/bundle.html
	 	 All the other resources for this document are within this. -->
		<resource>
            <Bundle>
            	<!-- When PUTing, some servers mandate an id here to match the existing id -->
            	<id value="63aa9ea7-8cdc-4e0b-a66d-b9a2a5e7ebf3"/>
				<!-- document bundles must have an identifier (bdl-9) -->
				<identifier>
					<!-- possibly different identifier types may be needed here -->
					<system value="http://ema.europa.eu/fhir/identifier/documentid"/>
					<value value="${instance.bundle[n].Identifier}"/>
				</identifier>
				<!-- fixed code -->
				<type value="document" /> 
            	<!-- document bundles must have a date (bdl-10) -->
            	<timestamp value="2021-06-07T20:04:21Z"/>
				<!-- a repeating set of entry elements, each with a FHIR resource inside -->
				<entry>
					<!-- fullUrl is mandatory for each entry in document Bundle. It is a random uuid. http://build.fhir.org/bundle.html#bundle-unique -->
					<fullUrl value="urn:uuid:3ff4fcdb-7264-4815-8de9-b7f95ec56473"/>
					<resource>
						<!-- the first resource must be Composition (bdl-11) -->
						<!-- This is the overall document structure. -->
						<!-- see definition http://hl7.org/fhir/composition.html, and similar for other resources -->
                        <Composition>
                        	<!-- images if requied within html text of this document -->
							
							<contained>
                                <Binary>
                                	<id value="image0"/>
                                	<!-- example format -->
                                	<contentType value="image/png"/>
									<!-- data is base 64 encoded, actual bytes of the image png file -->
                                	<data value=""/>
								</Binary>
							</contained>
							<!-- this exension is necessary per image -->
                <extension url="http://ema.europa.eu/fhir/extension/dummyValidationReference">
                        		<valueReference>
                        			<reference value="#image0"/>
                        		</valueReference>
               </extension>
              
							<contained>
                                <Binary>
                                	<id value="image1"/>
                                	<!-- example format -->
                                	<contentType value="image/png"/>
									<!-- data is base 64 encoded, actual bytes of the image png file -->
                                	<data value=""/>
								</Binary>
							</contained>
							<!-- this exension is necessary per image -->
                <extension url="http://ema.europa.eu/fhir/extension/dummyValidationReference">
                        		<valueReference>
                        			<reference value="#image1"/>
                        		</valueReference>
               </extension>
              
							<contained>
                                <Binary>
                                	<id value="image2"/>
                                	<!-- example format -->
                                	<contentType value="image/png"/>
									<!-- data is base 64 encoded, actual bytes of the image png file -->
                                	<data value=""/>
								</Binary>
							</contained>
							<!-- this exension is necessary per image -->
                <extension url="http://ema.europa.eu/fhir/extension/dummyValidationReference">
                        		<valueReference>
                        			<reference value="#image2"/>
                        		</valueReference>
               </extension>
              
							<contained>
                                <Binary>
                                	<id value="image3"/>
                                	<!-- example format -->
                                	<contentType value="image/png"/>
									<!-- data is base 64 encoded, actual bytes of the image png file -->
                                	<data value=""/>
								</Binary>
							</contained>
							<!-- this exension is necessary per image -->
                <extension url="http://ema.europa.eu/fhir/extension/dummyValidationReference">
                        		<valueReference>
                        			<reference value="#image3"/>
                        		</valueReference>
               </extension>
              
              
              <contained>
                          <Binary>
                            <id value="stylesheet0"/>
                            <!-- example format -->
                            <contentType value="stylesheet/css"/>
                            <!-- data is base 64 encoded, actual bytes of the image png file -->
                            <data value=""/>
                          </Binary>
                        </contained>
                        <!-- this exension is necessary per image -->
                        <extension url="http://ema.europa.eu/fhir/extension/dummyValidationReference">
                          <valueReference>
                            <reference value="#stylesheet0"/>
                          </valueReference>
                        </extension>
              
              <status value="final"/>
							<!-- document type -->
							<type>
								<coding>
									<system value="http://spor.ema.europa.eu/v1/lists/100000155531"/>
									<code value="${document[n].documentTypeCode}"/>
									<display value="${document[n].documentTypeDisplay}"/>
								</coding>
							</type>
							<subject>
								<!-- links to the List resource in this bundle - local url format -->
								<reference value="[]"/> <!-- local url format -->
								<!--reference value="${instance.bundle[n].listUuid}"/--> <!-- uuid url format. Possible alternate format may be neeed -->
							</subject>
                        	<!-- mandatory date of the document -->
                        	<date value="2021-02-01"/>
							<author>
								<identifier>
									<system value="http://spor.ema.europa.eu/v1/locations" />
									<value value="" />
								</identifier>
							</author>
                        	<title value="${document[n].title}"/>
							<relatesTo>
								<code value="appends"/>
								<targetReference>
									<!-- reference to another Composition -->
									<reference value="${document[n].relatesTo}"/>
								</targetReference>
							</relatesTo>
							<!-- main sections of the document, to follow the QRD template -->
	               			
<section>
	
		
			<title value="A. ETIKETTIERUNG"/>
				<code>
					<coding>
						<system value="http://spor.ema.europa.eu/v1/example-sections"/>
						<code value="${document[n].section[n].subsection[n].typeCode}"/>
						<display value="${document[n].section[n].subsection[n].typeDisplay}"/>
					</coding>
				</code>
		<text>
			<status value="additional"/>
			<div xmlns="http://www.w3.org/1999/xhtml">
		    <span lang="DE" style='font-size:11.0pt;font-family:"Times New Roman",serif'><br clear="all" style="page-break-before:always"/> </span><br clear="all" style="page-break-before:always"/>
			</div>
		</text>
		
		
    	    
				
			    
						
		               
<section>
			<title value="ANGABEN AUF DER ÄUSSEREN UMHÜLLUNG"/>
				<code>
					<coding>
						<system value="http://spor.ema.europa.eu/v1/example-sections"/>
						<code value="${document[n].section[n].subsection[n].typeCode}"/>
						<display value="${document[n].section[n].subsection[n].typeDisplay}"/>
					</coding>
				</code>
		<text>
			<status value="additional"/>
			<div xmlns="http://www.w3.org/1999/xhtml">
		    <div style="border:solid windowtext 1.0pt;padding:1.0pt 4.0pt 1.0pt 4.0pt"> <p class="MsoNormal" style="border:none;padding:0in"></p> <p class="MsoNormal" style="border:none;padding:0in"><b><span lang="DE">GONAL‑f 75 I.E., SCHACHTEL MIT 1, 5, 10 DURCHSTECHFLASCHEN UND 1, 5, 10 FERTIGSPRITZEN</span></b></p> </div><p class="MsoNormal" style="margin-left:-7.1pt;text-indent:7.1pt"></p><p class="MsoNormal" style="margin-left:-7.1pt;text-indent:7.1pt"></p>
			</div>
		</text>
		
    	    

			    
		               
<section>
			<title value="1.       BEZEICHNUNG DES ARZNEIMITTELS"/>
				<code>
					<coding>
						<system value="http://spor.ema.europa.eu/v1/example-sections"/>
						<code value="${document[n].section[n].subsection[n].typeCode}"/>
						<display value="${document[n].section[n].subsection[n].typeDisplay}"/>
					</coding>
				</code>
		<text>
			<status value="additional"/>
			<div xmlns="http://www.w3.org/1999/xhtml">
		    <p class="MsoNormal"></p><p class="MsoNormal"><span lang="DE">GONAL‑f 75 I.E. </span><span lang="DE">Pulver und Lösungsmittel zur Herstellung einer Injektionslösung</span></p><p class="MsoNormal"><span lang="DE">Follitropin alfa</span></p><p class="MsoNormal"><u><span lang="DE"></span></u></p><p class="MsoNormal"><u><span lang="DE"></span></u></p>
			</div>
		</text>
		
    	    
		
</section>
			    
    	    

			    
		               
<section>
			<title value="2.       WIRKSTOFF(E)"/>
				<code>
					<coding>
						<system value="http://spor.ema.europa.eu/v1/example-sections"/>
						<code value="${document[n].section[n].subsection[n].typeCode}"/>
						<display value="${document[n].section[n].subsection[n].typeDisplay}"/>
					</coding>
				</code>
		<text>
			<status value="additional"/>
			<div xmlns="http://www.w3.org/1999/xhtml">
		    <p class="MsoNormal"></p><p class="MsoNormal"><span lang="DE">Eine Durchstechflasche enthält 5,5 Mikrogramm Follitropin alfa, entsprechend 75 I.E. Pro ml der rekonstituierten Lösung sind 75 I.E. enthalten.</span></p><p class="MsoNormal"></p><p class="MsoNormal"></p>
			</div>
		</text>
		
    	    
		
</section>
			    
    	    

			    
		               
<section>
			<title value="3.       SONSTIGE BESTANDTEILE"/>
				<code>
					<coding>
						<system value="http://spor.ema.europa.eu/v1/example-sections"/>
						<code value="${document[n].section[n].subsection[n].typeCode}"/>
						<display value="${document[n].section[n].subsection[n].typeDisplay}"/>
					</coding>
				</code>
		<text>
			<status value="additional"/>
			<div xmlns="http://www.w3.org/1999/xhtml">
		    <p class="MsoNormal"></p><p class="MsoNormal"><span lang="DE">Sonstige Bestandteile: Sucrose, Natriumdihydrogenphosphat‑Monohydrat, Dinatriumhydrogenphosphat‑Dihydrat, Methionin, Polysorbat 20, konzentrierte Phosphorsäure und Natriumhydroxid.</span></p><p class="MsoNormal"><span lang="DE">Lösungsmittel zur Herstellung einer Injektionslösung:  Wasser für Injektionszwecke.</span></p><p class="MsoNormal"></p><p class="MsoNormal"></p>
			</div>
		</text>
		
    	    
		
</section>
			    
    	    

			    
		               
<section>
			<title value="4.       DARREICHUNGSFORM UND INHALT"/>
				<code>
					<coding>
						<system value="http://spor.ema.europa.eu/v1/example-sections"/>
						<code value="${document[n].section[n].subsection[n].typeCode}"/>
						<display value="${document[n].section[n].subsection[n].typeDisplay}"/>
					</coding>
				</code>
		<text>
			<status value="additional"/>
			<div xmlns="http://www.w3.org/1999/xhtml">
		    <p class="MsoNormal"></p><p class="MsoNormal"><span lang="DE">1 Durchstechflasche mit Pulver zur Herstellung einer Injektionslösung.</span></p><p class="MsoNormal"><span lang="DE">1 Fertigspritze mit 1 ml Lösungsmittel.</span></p><p class="MsoNormal"></p><p class="MsoNormal"><span lang="DE" style="color:black;background:#D9D9D9">5 Durchstechflaschen mit Pulver zur Herstellung einer Injektionslösung.</span></p><p class="MsoNormal"><span lang="DE" style="color:black;background:#D9D9D9">5 Fertigspritzen mit 1 ml Lösungsmittel.</span></p><p class="MsoNormal"></p><p class="MsoNormal"><span lang="DE" style="color:black;background:#D9D9D9">10 Durchstechflaschen mit Pulver zur Herstellung einer Injektionslösung.</span></p><p class="MsoNormal"><span lang="DE" style="color:black;background:#D9D9D9">10 Fertigspritzen mit 1 ml Lösungsmittel.</span></p><p class="MsoNormal"></p><p class="MsoNormal"></p>
			</div>
		</text>
		
    	    
		
</section>
			    
    	    

			    
		               
<section>
			<title value="5.       HINWEISE ZUR UND ART(EN) DER ANWENDUNG"/>
				<code>
					<coding>
						<system value="http://spor.ema.europa.eu/v1/example-sections"/>
						<code value="${document[n].section[n].subsection[n].typeCode}"/>
						<display value="${document[n].section[n].subsection[n].typeDisplay}"/>
					</coding>
				</code>
		<text>
			<status value="additional"/>
			<div xmlns="http://www.w3.org/1999/xhtml">
		    <p class="MsoNormal"></p><p class="MsoNormal"><span lang="DE">Packungsbeilage beachten.</span></p><p class="MsoNormal"><span lang="DE">Subkutane Anwendung.</span></p><p class="MsoNormal"></p><p class="MsoNormal"></p>
			</div>
		</text>
		
    	    
		
</section>
			    
    	    

			    
		               
<section>
			<title value="6.       WARNHINWEIS, DASS DAS ARZNEIMITTEL FÜR KINDER UNZUGÄNGLICH AUFZUBEWAHREN IST"/>
				<code>
					<coding>
						<system value="http://spor.ema.europa.eu/v1/example-sections"/>
						<code value="${document[n].section[n].subsection[n].typeCode}"/>
						<display value="${document[n].section[n].subsection[n].typeDisplay}"/>
					</coding>
				</code>
		<text>
			<status value="additional"/>
			<div xmlns="http://www.w3.org/1999/xhtml">
		    <p class="MsoNormal" style="page-break-after:avoid"></p><p class="MsoNormal"><span lang="DE">Arzneimittel für Kinder unzugänglich aufbewahren.</span></p><p class="MsoNormal"></p><p class="MsoNormal"></p>
			</div>
		</text>
		
    	    
		
</section>
			    
    	    

			    
		               
<section>
			<title value="7.       WEITERE WARNHINWEISE, FALLS ERFORDERLICH"/>
				<code>
					<coding>
						<system value="http://spor.ema.europa.eu/v1/example-sections"/>
						<code value="${document[n].section[n].subsection[n].typeCode}"/>
						<display value="${document[n].section[n].subsection[n].typeDisplay}"/>
					</coding>
				</code>
		<text>
			<status value="additional"/>
			<div xmlns="http://www.w3.org/1999/xhtml">
		    <p class="MsoNormal" style="page-break-after:avoid"></p><p class="MsoNormal"></p>
			</div>
		</text>
		
    	    
		
</section>
			    
    	    

			    
		               
<section>
			<title value="8.       VERFALLDATUM"/>
				<code>
					<coding>
						<system value="http://spor.ema.europa.eu/v1/example-sections"/>
						<code value="${document[n].section[n].subsection[n].typeCode}"/>
						<display value="${document[n].section[n].subsection[n].typeDisplay}"/>
					</coding>
				</code>
		<text>
			<status value="additional"/>
			<div xmlns="http://www.w3.org/1999/xhtml">
		    <p class="MsoNormal" style="page-break-after:avoid"></p><p class="MsoNormal"><span lang="DE">verwendbar bis</span></p><p class="MsoNormal"></p><p class="MsoNormal"></p>
			</div>
		</text>
		
    	    
		
</section>
			    
    	    

			    
		               
<section>
			<title value="9.       BESONDERE VORSICHTSMASSNAHMEN FÜR DIE AUFBEWAHRUNG"/>
				<code>
					<coding>
						<system value="http://spor.ema.europa.eu/v1/example-sections"/>
						<code value="${document[n].section[n].subsection[n].typeCode}"/>
						<display value="${document[n].section[n].subsection[n].typeDisplay}"/>
					</coding>
				</code>
		<text>
			<status value="additional"/>
			<div xmlns="http://www.w3.org/1999/xhtml">
		    <p class="MsoNormal"></p><p class="MsoNormal"><span lang="DE">Nicht über 25 ºC lagern. In der Originalverpackung aufbewahren, um den Inhalt vor Licht zu schützen.</span></p><p class="MsoNormal"></p><p class="MsoNormal"></p>
			</div>
		</text>
		
    	    
		
</section>
			    
    	    

			    
		               
<section>
			<title value="10.     GEGEBENENFALLS BESONDERE VORSICHTSMASSNAHMEN FÜR DIE BESEITIGUNG VON NICHT VERWENDETEM ARZNEIMITTEL ODER DAVON STAMMENDEN ABFALLMATERIALIEN"/>
				<code>
					<coding>
						<system value="http://spor.ema.europa.eu/v1/example-sections"/>
						<code value="${document[n].section[n].subsection[n].typeCode}"/>
						<display value="${document[n].section[n].subsection[n].typeDisplay}"/>
					</coding>
				</code>
		<text>
			<status value="additional"/>
			<div xmlns="http://www.w3.org/1999/xhtml">
		    <p class="MsoNormal"></p><p class="MsoNormal"><span lang="DE">Unverbrauchte restliche Injektionslösung ist zu verwerfen.</span></p><p class="MsoNormal"></p><p class="MsoNormal"></p>
			</div>
		</text>
		
    	    
		
</section>
			    
    	    

			    
		               
<section>
			<title value="11.     NAME UND ANSCHRIFT DES PHARMAZEUTISCHEN UNTERNEHMERS"/>
				<code>
					<coding>
						<system value="http://spor.ema.europa.eu/v1/example-sections"/>
						<code value="${document[n].section[n].subsection[n].typeCode}"/>
						<display value="${document[n].section[n].subsection[n].typeDisplay}"/>
					</coding>
				</code>
		<text>
			<status value="additional"/>
			<div xmlns="http://www.w3.org/1999/xhtml">
		    <p class="MsoNormal" style="margin-left:28.35pt;text-indent:-28.35pt"></p><p class="MsoListParagraph" style="margin:0in;margin-bottom:.0001pt;line-height: normal;page-break-after:avoid"><span lang="DE" style="font-size:11.0pt">Merck Europe B.V.</span></p><p class="MsoListParagraph" style="margin:0in;margin-bottom:.0001pt;line-height: normal;page-break-after:avoid"><span lang="DE" style="font-size:11.0pt">Gustav Mahlerplein 102</span></p><p class="MsoListParagraph" style="margin:0in;margin-bottom:.0001pt;line-height: normal;page-break-after:avoid"><span lang="DE" style="font-size:11.0pt">1082 MA Amsterdam</span></p><p class="MsoNormal"><span lang="DE">Niederlande</span></p><p class="MsoNormal" style="margin-left:28.35pt;text-indent:-28.35pt"></p><p class="MsoNormal" style="margin-left:28.35pt;text-indent:-28.35pt"></p>
			</div>
		</text>
		
    	    
		
</section>
			    
    	    

			    
		               
<section>
			<title value="12.     ZULASSUNGSNUMMER(N)"/>
				<code>
					<coding>
						<system value="http://spor.ema.europa.eu/v1/example-sections"/>
						<code value="${document[n].section[n].subsection[n].typeCode}"/>
						<display value="${document[n].section[n].subsection[n].typeDisplay}"/>
					</coding>
				</code>
		<text>
			<status value="additional"/>
			<div xmlns="http://www.w3.org/1999/xhtml">
		    <p class="MsoNormal" style="margin-left:28.35pt;text-indent:-28.35pt"></p><p class="MsoNormal"><span lang="DE">EU/1/95/001/025   </span><span lang="DE" style="color:black;background:#D9D9D9;layout-grid-mode:line">1 Durchstechflasche Pulver zur Herstellung einer Injektionslösung</span></p><p class="MsoNormal"><span lang="DE" style="color:black;background:#D9D9D9;layout-grid-mode:line">1 Fertigspritze Lösungsmittel</span></p><p class="MsoNormal" style="margin-left:28.35pt;text-indent:-28.35pt"></p><p class="MsoBodyText" style="line-height:normal"><span lang="DE" style="color: black;background:#D9D9D9;font-weight:normal;font-style:normal">EU/1/95/001/026   5 Durchstechflaschen Pulver zur Herstellung einer Injektionslösung</span></p><p class="MsoBodyText" style="line-height:normal"><span lang="DE" style="color: black;background:#D9D9D9;font-weight:normal;font-style:normal">                            5 Fertigspritzen Lösungsmittel</span></p><p class="MsoNormal" style="margin-left:28.35pt;text-indent:-28.35pt"></p><p class="MsoBodyText" style="line-height:normal"><span lang="DE" style="color: black;background:#D9D9D9;font-weight:normal;font-style:normal">EU/1/95/001/027   10 Durchstechflaschen Pulver zur Herstellung einer Injektionslösung</span></p><p class="MsoBodyText" style="line-height:normal"><span lang="DE" style="color: black;background:#D9D9D9;font-weight:normal;font-style:normal">                            10 Fertigspritzen Lösungsmittel</span></p><p class="MsoNormal" style="margin-left:28.35pt;text-indent:-28.35pt"></p><p class="MsoNormal"></p>
			</div>
		</text>
		
    	    
		
</section>
			    
    	    

			    
		               
<section>
			<title value="13.     CHARGENBEZEICHNUNG"/>
				<code>
					<coding>
						<system value="http://spor.ema.europa.eu/v1/example-sections"/>
						<code value="${document[n].section[n].subsection[n].typeCode}"/>
						<display value="${document[n].section[n].subsection[n].typeDisplay}"/>
					</coding>
				</code>
		<text>
			<status value="additional"/>
			<div xmlns="http://www.w3.org/1999/xhtml">
		    <p class="MsoNormal" style="margin-left:28.35pt;text-indent:-28.35pt"></p><p class="MsoNormal" style="margin-left:28.35pt;text-indent:-28.35pt"><span lang="DE">Ch.‑B.</span></p><p class="MsoNormal" style="margin-left:28.35pt;text-indent:-28.35pt"><span lang="DE">Lösungsmittel Ch.‑B.</span></p><p class="MsoNormal" style="margin-left:28.35pt;text-indent:-28.35pt"></p><p class="MsoNormal" style="margin-left:28.35pt;text-indent:-28.35pt"></p>
			</div>
		</text>
		
    	    
		
</section>
			    
    	    

			    
		               
<section>
			<title value="14.     VERKAUFSABGRENZUNG"/>
				<code>
					<coding>
						<system value="http://spor.ema.europa.eu/v1/example-sections"/>
						<code value="${document[n].section[n].subsection[n].typeCode}"/>
						<display value="${document[n].section[n].subsection[n].typeDisplay}"/>
					</coding>
				</code>
		<text>
			<status value="additional"/>
			<div xmlns="http://www.w3.org/1999/xhtml">
		    <p class="MsoNormal" style="page-break-after:avoid"></p><p class="MsoNormal"></p>
			</div>
		</text>
		
    	    
		
</section>
			    
    	    

			    
		               
<section>
			<title value="15.     HINWEISE FÜR DEN GEBRAUCH"/>
				<code>
					<coding>
						<system value="http://spor.ema.europa.eu/v1/example-sections"/>
						<code value="${document[n].section[n].subsection[n].typeCode}"/>
						<display value="${document[n].section[n].subsection[n].typeDisplay}"/>
					</coding>
				</code>
		<text>
			<status value="additional"/>
			<div xmlns="http://www.w3.org/1999/xhtml">
		    <p class="MsoNormal" style="page-break-after:avoid"></p><p class="MsoNormal"></p><div style="border:solid windowtext 1.0pt;padding:1.0pt 4.0pt 1.0pt 4.0pt"> <p class="MsoNormal" style="border:none;padding:0in"><b><span lang="DE">16.     ANGABEN in BLINDENSCHRIFT</span></b></p> </div><p class="MsoNormal" style="page-break-after:avoid"></p><p class="MsoNormal"><span lang="DE">gonal‑f 75 i.e.</span></p><p class="MsoNormal"></p><p class="MsoNormal"></p>
			</div>
		</text>
		
    	    
		
</section>
			    
    	    

			    
		               
<section>
			<title value="17.     INDIVIDUELLES ERKENNUNGSMERKMAL – 2D-BARCODE"/>
				<code>
					<coding>
						<system value="http://spor.ema.europa.eu/v1/example-sections"/>
						<code value="${document[n].section[n].subsection[n].typeCode}"/>
						<display value="${document[n].section[n].subsection[n].typeDisplay}"/>
					</coding>
				</code>
		<text>
			<status value="additional"/>
			<div xmlns="http://www.w3.org/1999/xhtml">
		    <p class="MsoNormal" style="page-break-after:avoid"></p><p class="MsoNormal"><span lang="DE" style="color:black;background:#D9D9D9">2D-Barcode mit individuellem Erkennungsmerkmal.</span></p><p class="MsoNormal"></p><p class="MsoNormal"></p>
			</div>
		</text>
		
    	    
		
</section>
			    
    	    

			    
		               
<section>
			<title value="18.     INDIVIDUELLES ERKENNUNGSMERKMAL – VOM MENSCHEN LESBARES FORMAT"/>
				<code>
					<coding>
						<system value="http://spor.ema.europa.eu/v1/example-sections"/>
						<code value="${document[n].section[n].subsection[n].typeCode}"/>
						<display value="${document[n].section[n].subsection[n].typeDisplay}"/>
					</coding>
				</code>
		<text>
			<status value="additional"/>
			<div xmlns="http://www.w3.org/1999/xhtml">
		    <p class="MsoNormal" style="page-break-after:avoid"></p><p class="MsoNormal"><span lang="DE">PC</span></p><p class="MsoNormal"><span lang="DE">SN</span></p><p class="MsoNormal"><span lang="DE">NN</span></p><p class="MsoNormal"></p><span lang="DE" style='font-size:11.0pt;font-family:"Times New Roman",serif'><br clear="all" style="page-break-before:always"/> </span><br clear="all" style="page-break-before:always"/>
			</div>
		</text>
		
    	    
		
</section>
			    
    	    
		
</section>
			    
    	    
				
			    
						
		               
<section>
			<title value="MINDESTANGABEN AUF KLEINEN BEHÄLTNISSEN"/>
				<code>
					<coding>
						<system value="http://spor.ema.europa.eu/v1/example-sections"/>
						<code value="${document[n].section[n].subsection[n].typeCode}"/>
						<display value="${document[n].section[n].subsection[n].typeDisplay}"/>
					</coding>
				</code>
		<text>
			<status value="additional"/>
			<div xmlns="http://www.w3.org/1999/xhtml">
		    <div style="border:solid windowtext 1.0pt;padding:1.0pt 4.0pt 1.0pt 4.0pt"> <p class="MsoNormal" style="border:none;padding:0in"></p> <p class="MsoNormal" style="border:none;padding:0in"><b><span lang="DE">GONAL‑f 75 I.E., ETIKETT DER DURCHSTECHFLASCHE</span></b></p> </div><p class="MsoNormal"></p><p class="MsoNormal"></p>
			</div>
		</text>
		
    	    

			    
		               
<section>
			<title value="1.       BEZEICHNUNG DES ARZNEIMITTELS SOWIE ART(EN) DER ANWENDUNG"/>
				<code>
					<coding>
						<system value="http://spor.ema.europa.eu/v1/example-sections"/>
						<code value="${document[n].section[n].subsection[n].typeCode}"/>
						<display value="${document[n].section[n].subsection[n].typeDisplay}"/>
					</coding>
				</code>
		<text>
			<status value="additional"/>
			<div xmlns="http://www.w3.org/1999/xhtml">
		    <p class="MsoNormal"></p><p class="MsoNormal"><span lang="DE">GONAL‑f 75 I.E. Pulver zur Herstellung einer Injektionslösung</span></p><p class="MsoNormal"><span lang="DE">Follitropin alfa</span></p><p class="MsoNormal"><span lang="DE">s.c.</span></p><p class="MsoNormal"></p><p class="MsoNormal"></p>
			</div>
		</text>
		
    	    
		
</section>
			    
    	    

			    
		               
<section>
			<title value="2.       HINWEISE ZUR ANWENDUNG"/>
				<code>
					<coding>
						<system value="http://spor.ema.europa.eu/v1/example-sections"/>
						<code value="${document[n].section[n].subsection[n].typeCode}"/>
						<display value="${document[n].section[n].subsection[n].typeDisplay}"/>
					</coding>
				</code>
		<text>
			<status value="additional"/>
			<div xmlns="http://www.w3.org/1999/xhtml">
		    <p class="MsoNormal"></p><p class="MsoNormal"></p>
			</div>
		</text>
		
    	    
		
</section>
			    
    	    

			    
		               
<section>
			<title value="3.       VERFALLDATUM"/>
				<code>
					<coding>
						<system value="http://spor.ema.europa.eu/v1/example-sections"/>
						<code value="${document[n].section[n].subsection[n].typeCode}"/>
						<display value="${document[n].section[n].subsection[n].typeDisplay}"/>
					</coding>
				</code>
		<text>
			<status value="additional"/>
			<div xmlns="http://www.w3.org/1999/xhtml">
		    <p class="MsoNormal"></p><p class="MsoNormal"><span lang="DE">verw. bis</span></p><p class="MsoNormal"></p><p class="MsoNormal"></p>
			</div>
		</text>
		
    	    
		
</section>
			    
    	    

			    
		               
<section>
			<title value="4.       CHARGENBEZEICHNUNG"/>
				<code>
					<coding>
						<system value="http://spor.ema.europa.eu/v1/example-sections"/>
						<code value="${document[n].section[n].subsection[n].typeCode}"/>
						<display value="${document[n].section[n].subsection[n].typeDisplay}"/>
					</coding>
				</code>
		<text>
			<status value="additional"/>
			<div xmlns="http://www.w3.org/1999/xhtml">
		    <p class="MsoNormal"></p><p class="MsoNormal"><span lang="DE">Ch.‑B.</span></p><p class="MsoNormal"></p><p class="MsoNormal"></p>
			</div>
		</text>
		
    	    
		
</section>
			    
    	    

			    
		               
<section>
			<title value="5.       INHALT NACH GEWICHT, VOLUMEN ODER EINHEITEN"/>
				<code>
					<coding>
						<system value="http://spor.ema.europa.eu/v1/example-sections"/>
						<code value="${document[n].section[n].subsection[n].typeCode}"/>
						<display value="${document[n].section[n].subsection[n].typeDisplay}"/>
					</coding>
				</code>
		<text>
			<status value="additional"/>
			<div xmlns="http://www.w3.org/1999/xhtml">
		    <p class="MsoNormal"></p><p class="MsoNormal"><span lang="DE">75 I.E.</span></p><p class="MsoNormal"></p><p class="MsoNormal"></p>
			</div>
		</text>
		
    	    
		
</section>
			    
    	    

			    
		               
<section>
			<title value="6.       WEITERE ANGABEN"/>
				<code>
					<coding>
						<system value="http://spor.ema.europa.eu/v1/example-sections"/>
						<code value="${document[n].section[n].subsection[n].typeCode}"/>
						<display value="${document[n].section[n].subsection[n].typeDisplay}"/>
					</coding>
				</code>
		<text>
			<status value="additional"/>
			<div xmlns="http://www.w3.org/1999/xhtml">
		    <p class="MsoNormal"></p><p class="MsoNormal"></p><span lang="DE" style='font-size:11.0pt;font-family:"Times New Roman",serif'><br clear="all" style="page-break-before:always"/> </span><br clear="all" style="page-break-before:always"/>
			</div>
		</text>
		
    	    
		
</section>
			    
    	    

			    
		               
<section>
			<title value="1.       BEZEICHNUNG DES ARZNEIMITTELS SOWIE ART(EN) DER ANWENDUNG"/>
				<code>
					<coding>
						<system value="http://spor.ema.europa.eu/v1/example-sections"/>
						<code value="${document[n].section[n].subsection[n].typeCode}"/>
						<display value="${document[n].section[n].subsection[n].typeDisplay}"/>
					</coding>
				</code>
		<text>
			<status value="additional"/>
			<div xmlns="http://www.w3.org/1999/xhtml">
		    <p class="MsoNormal"></p><p class="MsoNormal"><span lang="DE">GONAL‑f 75 I.E. Pulver zur Herstellung einer Injektionslösung</span></p><p class="MsoNormal"><span lang="DE">Follitropin alfa</span></p><p class="MsoNormal"><span lang="DE">s.c.</span></p><p class="MsoNormal"></p><p class="MsoNormal"></p>
			</div>
		</text>
		
    	    
		
</section>
			    
    	    

			    
		               
<section>
			<title value="2.       HINWEISE ZUR ANWENDUNG"/>
				<code>
					<coding>
						<system value="http://spor.ema.europa.eu/v1/example-sections"/>
						<code value="${document[n].section[n].subsection[n].typeCode}"/>
						<display value="${document[n].section[n].subsection[n].typeDisplay}"/>
					</coding>
				</code>
		<text>
			<status value="additional"/>
			<div xmlns="http://www.w3.org/1999/xhtml">
		    <p class="MsoNormal"></p><p class="MsoNormal"></p>
			</div>
		</text>
		
    	    
		
</section>
			    
    	    

			    
		               
<section>
			<title value="3.       VERFALLDATUM"/>
				<code>
					<coding>
						<system value="http://spor.ema.europa.eu/v1/example-sections"/>
						<code value="${document[n].section[n].subsection[n].typeCode}"/>
						<display value="${document[n].section[n].subsection[n].typeDisplay}"/>
					</coding>
				</code>
		<text>
			<status value="additional"/>
			<div xmlns="http://www.w3.org/1999/xhtml">
		    <p class="MsoNormal"></p><p class="MsoNormal"><span lang="DE">verw. bis</span></p><p class="MsoNormal"></p><p class="MsoNormal"></p>
			</div>
		</text>
		
    	    
		
</section>
			    
    	    

			    
		               
<section>
			<title value="4.       CHARGENBEZEICHNUNG"/>
				<code>
					<coding>
						<system value="http://spor.ema.europa.eu/v1/example-sections"/>
						<code value="${document[n].section[n].subsection[n].typeCode}"/>
						<display value="${document[n].section[n].subsection[n].typeDisplay}"/>
					</coding>
				</code>
		<text>
			<status value="additional"/>
			<div xmlns="http://www.w3.org/1999/xhtml">
		    <p class="MsoNormal"></p><p class="MsoNormal"><span lang="DE">Ch.‑B.</span></p><p class="MsoNormal"></p><p class="MsoNormal"></p>
			</div>
		</text>
		
    	    
		
</section>
			    
    	    

			    
		               
<section>
			<title value="5.       INHALT NACH GEWICHT, VOLUMEN ODER EINHEITEN"/>
				<code>
					<coding>
						<system value="http://spor.ema.europa.eu/v1/example-sections"/>
						<code value="${document[n].section[n].subsection[n].typeCode}"/>
						<display value="${document[n].section[n].subsection[n].typeDisplay}"/>
					</coding>
				</code>
		<text>
			<status value="additional"/>
			<div xmlns="http://www.w3.org/1999/xhtml">
		    <p class="MsoNormal"></p><p class="MsoNormal"><span lang="DE">75 I.E.</span></p><p class="MsoNormal"></p><p class="MsoNormal"></p>
			</div>
		</text>
		
    	    
		
</section>
			    
    	    

			    
		               
<section>
			<title value="6.       WEITERE ANGABEN"/>
				<code>
					<coding>
						<system value="http://spor.ema.europa.eu/v1/example-sections"/>
						<code value="${document[n].section[n].subsection[n].typeCode}"/>
						<display value="${document[n].section[n].subsection[n].typeDisplay}"/>
					</coding>
				</code>
		<text>
			<status value="additional"/>
			<div xmlns="http://www.w3.org/1999/xhtml">
		    <p class="MsoNormal"></p><p class="MsoNormal"></p><span lang="DE" style='font-size:11.0pt;font-family:"Times New Roman",serif'><br clear="all" style="page-break-before:always"/> </span><br clear="all" style="page-break-before:always"/>
			</div>
		</text>
		
    	    
		
</section>
			    
    	    
		
</section>
			    
    	    
				
			    
						
		               
<section>
			<title value="MINDESTANGABEN AUF KLEINEN BEHÄLTNISSEN"/>
				<code>
					<coding>
						<system value="http://spor.ema.europa.eu/v1/example-sections"/>
						<code value="${document[n].section[n].subsection[n].typeCode}"/>
						<display value="${document[n].section[n].subsection[n].typeDisplay}"/>
					</coding>
				</code>
		<text>
			<status value="additional"/>
			<div xmlns="http://www.w3.org/1999/xhtml">
		    <div style="border:solid windowtext 1.0pt;padding:1.0pt 4.0pt 1.0pt 4.0pt"> <p class="MsoNormal" style="border:none;padding:0in"></p> <p class="MsoNormal" style="border:none;padding:0in"><b><span lang="DE">GONAL‑f 75 I.E., ETIKETT DER DURCHSTECHFLASCHE</span></b></p> </div><p class="MsoNormal"></p><p class="MsoNormal"></p>
			</div>
		</text>
		
    	    

			    
		               
<section>
			<title value="1.       BEZEICHNUNG DES ARZNEIMITTELS SOWIE ART(EN) DER ANWENDUNG"/>
				<code>
					<coding>
						<system value="http://spor.ema.europa.eu/v1/example-sections"/>
						<code value="${document[n].section[n].subsection[n].typeCode}"/>
						<display value="${document[n].section[n].subsection[n].typeDisplay}"/>
					</coding>
				</code>
		<text>
			<status value="additional"/>
			<div xmlns="http://www.w3.org/1999/xhtml">
		    <p class="MsoNormal"></p><p class="MsoNormal"><span lang="DE">GONAL‑f 75 I.E. Pulver zur Herstellung einer Injektionslösung</span></p><p class="MsoNormal"><span lang="DE">Follitropin alfa</span></p><p class="MsoNormal"><span lang="DE">s.c.</span></p><p class="MsoNormal"></p><p class="MsoNormal"></p>
			</div>
		</text>
		
    	    
		
</section>
			    
    	    

			    
		               
<section>
			<title value="2.       HINWEISE ZUR ANWENDUNG"/>
				<code>
					<coding>
						<system value="http://spor.ema.europa.eu/v1/example-sections"/>
						<code value="${document[n].section[n].subsection[n].typeCode}"/>
						<display value="${document[n].section[n].subsection[n].typeDisplay}"/>
					</coding>
				</code>
		<text>
			<status value="additional"/>
			<div xmlns="http://www.w3.org/1999/xhtml">
		    <p class="MsoNormal"></p><p class="MsoNormal"></p>
			</div>
		</text>
		
    	    
		
</section>
			    
    	    

			    
		               
<section>
			<title value="3.       VERFALLDATUM"/>
				<code>
					<coding>
						<system value="http://spor.ema.europa.eu/v1/example-sections"/>
						<code value="${document[n].section[n].subsection[n].typeCode}"/>
						<display value="${document[n].section[n].subsection[n].typeDisplay}"/>
					</coding>
				</code>
		<text>
			<status value="additional"/>
			<div xmlns="http://www.w3.org/1999/xhtml">
		    <p class="MsoNormal"></p><p class="MsoNormal"><span lang="DE">verw. bis</span></p><p class="MsoNormal"></p><p class="MsoNormal"></p>
			</div>
		</text>
		
    	    
		
</section>
			    
    	    

			    
		               
<section>
			<title value="4.       CHARGENBEZEICHNUNG"/>
				<code>
					<coding>
						<system value="http://spor.ema.europa.eu/v1/example-sections"/>
						<code value="${document[n].section[n].subsection[n].typeCode}"/>
						<display value="${document[n].section[n].subsection[n].typeDisplay}"/>
					</coding>
				</code>
		<text>
			<status value="additional"/>
			<div xmlns="http://www.w3.org/1999/xhtml">
		    <p class="MsoNormal"></p><p class="MsoNormal"><span lang="DE">Ch.‑B.</span></p><p class="MsoNormal"></p><p class="MsoNormal"></p>
			</div>
		</text>
		
    	    
		
</section>
			    
    	    

			    
		               
<section>
			<title value="5.       INHALT NACH GEWICHT, VOLUMEN ODER EINHEITEN"/>
				<code>
					<coding>
						<system value="http://spor.ema.europa.eu/v1/example-sections"/>
						<code value="${document[n].section[n].subsection[n].typeCode}"/>
						<display value="${document[n].section[n].subsection[n].typeDisplay}"/>
					</coding>
				</code>
		<text>
			<status value="additional"/>
			<div xmlns="http://www.w3.org/1999/xhtml">
		    <p class="MsoNormal"></p><p class="MsoNormal"><span lang="DE">75 I.E.</span></p><p class="MsoNormal"></p><p class="MsoNormal"></p>
			</div>
		</text>
		
    	    
		
</section>
			    
    	    

			    
		               
<section>
			<title value="6.       WEITERE ANGABEN"/>
				<code>
					<coding>
						<system value="http://spor.ema.europa.eu/v1/example-sections"/>
						<code value="${document[n].section[n].subsection[n].typeCode}"/>
						<display value="${document[n].section[n].subsection[n].typeDisplay}"/>
					</coding>
				</code>
		<text>
			<status value="additional"/>
			<div xmlns="http://www.w3.org/1999/xhtml">
		    <p class="MsoNormal"></p><p class="MsoNormal"></p><span lang="DE" style='font-size:11.0pt;font-family:"Times New Roman",serif'><br clear="all" style="page-break-before:always"/> </span><br clear="all" style="page-break-before:always"/>
			</div>
		</text>
		
    	    
		
</section>
			    
    	    

			    
		               
<section>
			<title value="1.       BEZEICHNUNG DES ARZNEIMITTELS SOWIE ART(EN) DER ANWENDUNG"/>
				<code>
					<coding>
						<system value="http://spor.ema.europa.eu/v1/example-sections"/>
						<code value="${document[n].section[n].subsection[n].typeCode}"/>
						<display value="${document[n].section[n].subsection[n].typeDisplay}"/>
					</coding>
				</code>
		<text>
			<status value="additional"/>
			<div xmlns="http://www.w3.org/1999/xhtml">
		    <p class="MsoNormal"></p><p class="MsoNormal"><span lang="DE">GONAL‑f 75 I.E. Pulver zur Herstellung einer Injektionslösung</span></p><p class="MsoNormal"><span lang="DE">Follitropin alfa</span></p><p class="MsoNormal"><span lang="DE">s.c.</span></p><p class="MsoNormal"></p><p class="MsoNormal"></p>
			</div>
		</text>
		
    	    
		
</section>
			    
    	    

			    
		               
<section>
			<title value="2.       HINWEISE ZUR ANWENDUNG"/>
				<code>
					<coding>
						<system value="http://spor.ema.europa.eu/v1/example-sections"/>
						<code value="${document[n].section[n].subsection[n].typeCode}"/>
						<display value="${document[n].section[n].subsection[n].typeDisplay}"/>
					</coding>
				</code>
		<text>
			<status value="additional"/>
			<div xmlns="http://www.w3.org/1999/xhtml">
		    <p class="MsoNormal"></p><p class="MsoNormal"></p>
			</div>
		</text>
		
    	    
		
</section>
			    
    	    

			    
		               
<section>
			<title value="3.       VERFALLDATUM"/>
				<code>
					<coding>
						<system value="http://spor.ema.europa.eu/v1/example-sections"/>
						<code value="${document[n].section[n].subsection[n].typeCode}"/>
						<display value="${document[n].section[n].subsection[n].typeDisplay}"/>
					</coding>
				</code>
		<text>
			<status value="additional"/>
			<div xmlns="http://www.w3.org/1999/xhtml">
		    <p class="MsoNormal"></p><p class="MsoNormal"><span lang="DE">verw. bis</span></p><p class="MsoNormal"></p><p class="MsoNormal"></p>
			</div>
		</text>
		
    	    
		
</section>
			    
    	    

			    
		               
<section>
			<title value="4.       CHARGENBEZEICHNUNG"/>
				<code>
					<coding>
						<system value="http://spor.ema.europa.eu/v1/example-sections"/>
						<code value="${document[n].section[n].subsection[n].typeCode}"/>
						<display value="${document[n].section[n].subsection[n].typeDisplay}"/>
					</coding>
				</code>
		<text>
			<status value="additional"/>
			<div xmlns="http://www.w3.org/1999/xhtml">
		    <p class="MsoNormal"></p><p class="MsoNormal"><span lang="DE">Ch.‑B.</span></p><p class="MsoNormal"></p><p class="MsoNormal"></p>
			</div>
		</text>
		
    	    
		
</section>
			    
    	    

			    
		               
<section>
			<title value="5.       INHALT NACH GEWICHT, VOLUMEN ODER EINHEITEN"/>
				<code>
					<coding>
						<system value="http://spor.ema.europa.eu/v1/example-sections"/>
						<code value="${document[n].section[n].subsection[n].typeCode}"/>
						<display value="${document[n].section[n].subsection[n].typeDisplay}"/>
					</coding>
				</code>
		<text>
			<status value="additional"/>
			<div xmlns="http://www.w3.org/1999/xhtml">
		    <p class="MsoNormal"></p><p class="MsoNormal"><span lang="DE">75 I.E.</span></p><p class="MsoNormal"></p><p class="MsoNormal"></p>
			</div>
		</text>
		
    	    
		
</section>
			    
    	    

			    
		               
<section>
			<title value="6.       WEITERE ANGABEN"/>
				<code>
					<coding>
						<system value="http://spor.ema.europa.eu/v1/example-sections"/>
						<code value="${document[n].section[n].subsection[n].typeCode}"/>
						<display value="${document[n].section[n].subsection[n].typeDisplay}"/>
					</coding>
				</code>
		<text>
			<status value="additional"/>
			<div xmlns="http://www.w3.org/1999/xhtml">
		    <p class="MsoNormal"></p><p class="MsoNormal"></p><span lang="DE" style='font-size:11.0pt;font-family:"Times New Roman",serif'><br clear="all" style="page-break-before:always"/> </span><br clear="all" style="page-break-before:always"/>
			</div>
		</text>
		
    	    
		
</section>
			    
    	    
		
</section>
			    
    	    
		
	
		
		
    	    
				
			    
						
		               
<section>
			<title value="ANGABEN AUF DER ÄUSSEREN UMHÜLLUNG"/>
				<code>
					<coding>
						<system value="http://spor.ema.europa.eu/v1/example-sections"/>
						<code value="${document[n].section[n].subsection[n].typeCode}"/>
						<display value="${document[n].section[n].subsection[n].typeDisplay}"/>
					</coding>
				</code>
		<text>
			<status value="additional"/>
			<div xmlns="http://www.w3.org/1999/xhtml">
		    <div style="border:solid windowtext 1.0pt;padding:1.0pt 1.0pt 1.0pt 1.0pt; background:white"> <p class="MsoNormal" style="background:white;border:none;padding:0in"></p> <p class="MsoNormal" style="background:white;border:none;padding:0in"><b><span lang="DE">GONAL-f 1050 I.E./1,75 ML, SCHACHTEL MIT 1 DURCHSTECHFLASCHE UND 1 FERTIGSPRITZE</span></b></p> </div><p class="MsoNormal" style="margin-left:-7.1pt;text-indent:7.1pt"></p><p class="MsoNormal" style="margin-left:-7.1pt;text-indent:7.1pt"></p>
			</div>
		</text>
		
    	    

			    
		               
<section>
			<title value="1.       BEZEICHNUNG DES ARZNEIMITTELS"/>
				<code>
					<coding>
						<system value="http://spor.ema.europa.eu/v1/example-sections"/>
						<code value="${document[n].section[n].subsection[n].typeCode}"/>
						<display value="${document[n].section[n].subsection[n].typeDisplay}"/>
					</coding>
				</code>
		<text>
			<status value="additional"/>
			<div xmlns="http://www.w3.org/1999/xhtml">
		    <p class="MsoNormal"></p><p class="MsoNormal"><span lang="DE">GONAL‑f 1050 I.E./1,75 ml </span><span lang="DE">Pulver und Lösungsmittel zur Herstellung einer Injektionslösung</span></p><p class="MsoNormal"><span lang="DE">Follitropin alfa</span></p><p class="MsoNormal"><u><span lang="DE"></span></u></p><p class="MsoNormal"><u><span lang="DE"></span></u></p>
			</div>
		</text>
		
    	    
		
</section>
			    
    	    

			    
		               
<section>
			<title value="2.       WIRKSTOFF(E)"/>
				<code>
					<coding>
						<system value="http://spor.ema.europa.eu/v1/example-sections"/>
						<code value="${document[n].section[n].subsection[n].typeCode}"/>
						<display value="${document[n].section[n].subsection[n].typeDisplay}"/>
					</coding>
				</code>
		<text>
			<status value="additional"/>
			<div xmlns="http://www.w3.org/1999/xhtml">
		    <p class="MsoNormal"></p><p class="MsoNormal"><span lang="DE">Jede Durchstechflasche zur Mehrfachdosierung enthält 87 Mikrogramm Follitropin alfa, entsprechend 1 200 I.E. Pro ml der rekonstituierten Lösung sind 600 I.E. enthalten.</span></p><p class="MsoNormal"></p><p class="MsoNormal"></p>
			</div>
		</text>
		
    	    
		
</section>
			    
    	    

			    
		               
<section>
			<title value="3.       SONSTIGE BESTANDTEILE"/>
				<code>
					<coding>
						<system value="http://spor.ema.europa.eu/v1/example-sections"/>
						<code value="${document[n].section[n].subsection[n].typeCode}"/>
						<display value="${document[n].section[n].subsection[n].typeDisplay}"/>
					</coding>
				</code>
		<text>
			<status value="additional"/>
			<div xmlns="http://www.w3.org/1999/xhtml">
		    <p class="MsoNormal"></p><p class="MsoNormal"><span lang="DE">Sonstige Bestandteile: Sucrose, Natriumdihydrogenphosphat‑Monohydrat, Dinatriumhydrogenphosphat‑Dihydrat, konzentrierte Phosphorsäure und Natriumhydroxid.</span></p><p class="MsoNormal"><span lang="DE">Lösungsmittel zur Herstellung einer Injektionslösung: Wasser für Injektionszwecke, Benzylalkohol 0,9%</span></p><p class="MsoNormal"></p><p class="MsoNormal"></p>
			</div>
		</text>
		
    	    
		
</section>
			    
    	    

			    
		               
<section>
			<title value="4.       DARREICHUNGSFORM UND INHALT"/>
				<code>
					<coding>
						<system value="http://spor.ema.europa.eu/v1/example-sections"/>
						<code value="${document[n].section[n].subsection[n].typeCode}"/>
						<display value="${document[n].section[n].subsection[n].typeDisplay}"/>
					</coding>
				</code>
		<text>
			<status value="additional"/>
			<div xmlns="http://www.w3.org/1999/xhtml">
		    <p class="MsoNormal"></p><p class="MsoNormal"><span lang="DE">1 Durchstechflasche mit Pulver zur Herstellung einer Injektionslösung.</span></p><p class="MsoNormal"><span lang="DE">1 Fertigspritze mit 2 ml Lösungsmittel.</span></p><p class="MsoNormal"><span lang="DE">15 Einwegspritzen zur Injektion, skaliert in FSH‑Einheiten</span></p><p class="MsoNormal"></p><p class="MsoNormal"></p>
			</div>
		</text>
		
    	    
		
</section>
			    
    	    

			    
		               
<section>
			<title value="5.       HINWEISE ZUR UND ART(EN) DER ANWENDUNG"/>
				<code>
					<coding>
						<system value="http://spor.ema.europa.eu/v1/example-sections"/>
						<code value="${document[n].section[n].subsection[n].typeCode}"/>
						<display value="${document[n].section[n].subsection[n].typeDisplay}"/>
					</coding>
				</code>
		<text>
			<status value="additional"/>
			<div xmlns="http://www.w3.org/1999/xhtml">
		    <p class="MsoNormal"></p><p class="MsoNormal"><span lang="DE">Für mehrere Injektionen vorgesehen.</span></p><p class="MsoNormal"><span lang="DE">Packungsbeilage beachten.</span></p><p class="MsoNormal"><span lang="DE">Subkutane Anwendung.</span></p><p class="MsoNormal"></p><p class="MsoNormal"></p>
			</div>
		</text>
		
    	    
		
</section>
			    
    	    

			    
		               
<section>
			<title value="6.       WARNHINWEIS, DASS DAS ARZNEIMITTEL FÜR KINDER UNZUGÄNGLICH AUFZUBEWAHREN IST"/>
				<code>
					<coding>
						<system value="http://spor.ema.europa.eu/v1/example-sections"/>
						<code value="${document[n].section[n].subsection[n].typeCode}"/>
						<display value="${document[n].section[n].subsection[n].typeDisplay}"/>
					</coding>
				</code>
		<text>
			<status value="additional"/>
			<div xmlns="http://www.w3.org/1999/xhtml">
		    <p class="MsoNormal" style="page-break-after:avoid"></p><p class="MsoNormal"><span lang="DE">Arzneimittel für Kinder unzugänglich aufbewahren.</span></p><p class="MsoNormal"></p><p class="MsoNormal"></p>
			</div>
		</text>
		
    	    
		
</section>
			    
    	    

			    
		               
<section>
			<title value="7.       WEITERE WARNHINWEISE, FALLS ERFORDERLICH"/>
				<code>
					<coding>
						<system value="http://spor.ema.europa.eu/v1/example-sections"/>
						<code value="${document[n].section[n].subsection[n].typeCode}"/>
						<display value="${document[n].section[n].subsection[n].typeDisplay}"/>
					</coding>
				</code>
		<text>
			<status value="additional"/>
			<div xmlns="http://www.w3.org/1999/xhtml">
		    <p class="MsoNormal" style="page-break-after:avoid"></p><p class="MsoNormal"><span lang="DE">Die Fertigspritze mit Lösungsmittel darf nur zur Rekonstitution verwendet werden.</span></p><p class="MsoNormal"><span lang="DE">Die rekonstituierte Durchstechflasche darf nur für einen einzigen Patienten verwendet werden.</span></p><p class="MsoNormal"></p><p class="MsoNormal"></p>
			</div>
		</text>
		
    	    
		
</section>
			    
    	    

			    
		               
<section>
			<title value="8.       VERFALLDATUM"/>
				<code>
					<coding>
						<system value="http://spor.ema.europa.eu/v1/example-sections"/>
						<code value="${document[n].section[n].subsection[n].typeCode}"/>
						<display value="${document[n].section[n].subsection[n].typeDisplay}"/>
					</coding>
				</code>
		<text>
			<status value="additional"/>
			<div xmlns="http://www.w3.org/1999/xhtml">
		    <p class="MsoNormal" style="page-break-after:avoid"></p><p class="MsoNormal"><span lang="DE">verwendbar bis</span></p><p class="MsoNormal"></p><p class="MsoNormal"></p>
			</div>
		</text>
		
    	    
		
</section>
			    
    	    

			    
		               
<section>
			<title value="9.       BESONDERE VORSICHTSMASSNAHMEN FÜR DIE AUFBEWAHRUNG"/>
				<code>
					<coding>
						<system value="http://spor.ema.europa.eu/v1/example-sections"/>
						<code value="${document[n].section[n].subsection[n].typeCode}"/>
						<display value="${document[n].section[n].subsection[n].typeDisplay}"/>
					</coding>
				</code>
		<text>
			<status value="additional"/>
			<div xmlns="http://www.w3.org/1999/xhtml">
		    <p class="MsoNormal"></p><p class="MsoNormal"><span lang="DE">Vor der Rekonstitution nicht über 25 ºC lagern. In der Originalverpackung aufbewahren, um den Inhalt vor Licht zu schützen.</span></p><p class="MsoNormal"><span lang="DE">Nach der Rekonstitution nicht über 25 ºC lagern. Nicht einfrieren. Im Originalbehältnis aufbewahren.</span></p><p class="MsoNormal"></p><p class="MsoNormal"></p>
			</div>
		</text>
		
    	    
		
</section>
			    
    	    

			    
		               
<section>
			<title value="10.     GEGEBENENFALLS BESONDERE VORSICHTSMASSNAHMEN FÜR DIE BESEITIGUNG VON NICHT VERWENDETEM ARZNEIMITTEL ODER DAVON STAMMENDEN ABFALLMATERIALIEN"/>
				<code>
					<coding>
						<system value="http://spor.ema.europa.eu/v1/example-sections"/>
						<code value="${document[n].section[n].subsection[n].typeCode}"/>
						<display value="${document[n].section[n].subsection[n].typeDisplay}"/>
					</coding>
				</code>
		<text>
			<status value="additional"/>
			<div xmlns="http://www.w3.org/1999/xhtml">
		    <p class="MsoNormal"></p><p class="MsoNormal"><span lang="DE">Unverbrauchte restliche Injektionslösung ist nach 28 Tagen zu verwerfen.</span></p><p class="MsoNormal"></p><p class="MsoNormal"></p>
			</div>
		</text>
		
    	    
		
</section>
			    
    	    

			    
		               
<section>
			<title value="11.     NAME UND ANSCHRIFT DES PHARMAZEUTISCHEN UNTERNEHMERS"/>
				<code>
					<coding>
						<system value="http://spor.ema.europa.eu/v1/example-sections"/>
						<code value="${document[n].section[n].subsection[n].typeCode}"/>
						<display value="${document[n].section[n].subsection[n].typeDisplay}"/>
					</coding>
				</code>
		<text>
			<status value="additional"/>
			<div xmlns="http://www.w3.org/1999/xhtml">
		    <p class="MsoNormal" style="margin-left:28.35pt;text-indent:-28.35pt"></p><p class="MsoListParagraph" style="margin:0in;margin-bottom:.0001pt;line-height: normal;page-break-after:avoid"><span lang="DE" style="font-size:11.0pt">Merck Europe B.V.</span></p><p class="MsoListParagraph" style="margin:0in;margin-bottom:.0001pt;line-height: normal;page-break-after:avoid"><span lang="DE" style="font-size:11.0pt">Gustav Mahlerplein 102</span></p><p class="MsoListParagraph" style="margin:0in;margin-bottom:.0001pt;line-height: normal;page-break-after:avoid"><span lang="DE" style="font-size:11.0pt">1082 MA Amsterdam</span></p><p class="MsoNormal"><span lang="DE">Niederlande</span></p><p class="MsoNormal" style="margin-left:28.35pt;text-indent:-28.35pt"></p><p class="MsoNormal" style="margin-left:28.35pt;text-indent:-28.35pt"></p>
			</div>
		</text>
		
    	    
		
</section>
			    
    	    

			    
		               
<section>
			<title value="12.     ZULASSUNGSNUMMER(N)"/>
				<code>
					<coding>
						<system value="http://spor.ema.europa.eu/v1/example-sections"/>
						<code value="${document[n].section[n].subsection[n].typeCode}"/>
						<display value="${document[n].section[n].subsection[n].typeDisplay}"/>
					</coding>
				</code>
		<text>
			<status value="additional"/>
			<div xmlns="http://www.w3.org/1999/xhtml">
		    <p class="MsoNormal" style="margin-left:28.35pt;text-indent:-28.35pt"></p><p class="MsoNormal" style="margin-left:85.05pt;text-indent:-85.05pt"><span lang="DE">EU/1/95/001/021   </span><span lang="DE" style="color:black;background: #D9D9D9">1 Durchstechflasche mit Pulver zur Herstellung einer Injektionslösung<br/> 1 Fertigspritze mit Lösungsmittel<br/> 15 Einwegspritzen zur Injektion</span></p><p class="MsoNormal"></p><p class="MsoNormal"></p>
			</div>
		</text>
		
    	    
		
</section>
			    
    	    

			    
		               
<section>
			<title value="13.     CHARGENBEZEICHNUNG"/>
				<code>
					<coding>
						<system value="http://spor.ema.europa.eu/v1/example-sections"/>
						<code value="${document[n].section[n].subsection[n].typeCode}"/>
						<display value="${document[n].section[n].subsection[n].typeDisplay}"/>
					</coding>
				</code>
		<text>
			<status value="additional"/>
			<div xmlns="http://www.w3.org/1999/xhtml">
		    <p class="MsoNormal"></p><p class="MsoNormal"><span lang="DE">Ch.‑B.</span></p><p class="MsoNormal"><span lang="DE">Lösungsmittel Ch.‑B.</span></p><p class="MsoNormal"></p><p class="MsoNormal"></p>
			</div>
		</text>
		
    	    
		
</section>
			    
    	    

			    
		               
<section>
			<title value="14.     VERKAUFSABGRENZUNG"/>
				<code>
					<coding>
						<system value="http://spor.ema.europa.eu/v1/example-sections"/>
						<code value="${document[n].section[n].subsection[n].typeCode}"/>
						<display value="${document[n].section[n].subsection[n].typeDisplay}"/>
					</coding>
				</code>
		<text>
			<status value="additional"/>
			<div xmlns="http://www.w3.org/1999/xhtml">
		    <p class="MsoNormal"></p><p class="MsoNormal"></p>
			</div>
		</text>
		
    	    
		
</section>
			    
    	    

			    
		               
<section>
			<title value="15.     HINWEISE FÜR DEN GEBRAUCH"/>
				<code>
					<coding>
						<system value="http://spor.ema.europa.eu/v1/example-sections"/>
						<code value="${document[n].section[n].subsection[n].typeCode}"/>
						<display value="${document[n].section[n].subsection[n].typeDisplay}"/>
					</coding>
				</code>
		<text>
			<status value="additional"/>
			<div xmlns="http://www.w3.org/1999/xhtml">
		    <p class="MsoNormal"></p><p class="MsoNormal"></p><div style="border:solid windowtext 1.0pt;padding:1.0pt 1.0pt 1.0pt 1.0pt"> <p class="MsoNormal" style="margin-left:28.35pt;text-indent:-28.35pt;page-break-after: avoid;border:none;padding:0in"><b><span lang="DE" style="text-transform:uppercase">16.     ANGABEN in BLINDENSCHRIFT</span></b></p> </div><p class="MsoNormal" style="page-break-after:avoid"></p><p class="MsoNormal"><span lang="DE">gonal‑f 1050 i.e.</span></p><p class="MsoNormal"></p><p class="MsoNormal"></p>
			</div>
		</text>
		
    	    
		
</section>
			    
    	    

			    
		               
<section>
			<title value="17.     INDIVIDUELLES ERKENNUNGSMERKMAL – 2D-BARCODE"/>
				<code>
					<coding>
						<system value="http://spor.ema.europa.eu/v1/example-sections"/>
						<code value="${document[n].section[n].subsection[n].typeCode}"/>
						<display value="${document[n].section[n].subsection[n].typeDisplay}"/>
					</coding>
				</code>
		<text>
			<status value="additional"/>
			<div xmlns="http://www.w3.org/1999/xhtml">
		    <p class="MsoNormal" style="page-break-after:avoid"></p><p class="MsoNormal"><span lang="DE" style="color:black;background:#D9D9D9">2D-Barcode mit individuellem Erkennungsmerkmal.</span></p><p class="MsoNormal"></p><p class="MsoNormal"></p>
			</div>
		</text>
		
    	    
		
</section>
			    
    	    

			    
		               
<section>
			<title value="18.     INDIVIDUELLES ERKENNUNGSMERKMAL – VOM MENSCHEN LESBARES FORMAT"/>
				<code>
					<coding>
						<system value="http://spor.ema.europa.eu/v1/example-sections"/>
						<code value="${document[n].section[n].subsection[n].typeCode}"/>
						<display value="${document[n].section[n].subsection[n].typeDisplay}"/>
					</coding>
				</code>
		<text>
			<status value="additional"/>
			<div xmlns="http://www.w3.org/1999/xhtml">
		    <p class="MsoNormal" style="page-break-after:avoid"></p><p class="MsoNormal"><span lang="DE">PC</span></p><p class="MsoNormal"><span lang="DE">SN</span></p><p class="MsoNormal"><span lang="DE">NN</span></p><p class="MsoNormal"></p><span lang="DE" style='font-size:11.0pt;font-family:"Times New Roman",serif'><br clear="all" style="page-break-before:always"/> </span><br clear="all" style="page-break-before:always"/>
			</div>
		</text>
		
    	    
		
</section>
			    
    	    
		
</section>
			    
    	    
				
			    
						
		               
<section>
			<title value="MINDESTANGABEN AUF KLEINEN BEHÄLTNISSEN"/>
				<code>
					<coding>
						<system value="http://spor.ema.europa.eu/v1/example-sections"/>
						<code value="${document[n].section[n].subsection[n].typeCode}"/>
						<display value="${document[n].section[n].subsection[n].typeDisplay}"/>
					</coding>
				</code>
		<text>
			<status value="additional"/>
			<div xmlns="http://www.w3.org/1999/xhtml">
		    <div style="border:solid windowtext 1.0pt;padding:1.0pt 4.0pt 1.0pt 4.0pt"> <p class="MsoNormal" style="border:none;padding:0in"></p> <p class="MsoNormal" style="border:none;padding:0in"><b><span lang="DE">GONAL‑f 1050 I.E./1,75 ML, ETIKETT DER DURCHSTECHFLASCHE</span></b></p> </div><p class="MsoNormal"></p><p class="MsoNormal"></p>
			</div>
		</text>
		
    	    

			    
		               
<section>
			<title value="1.       BEZEICHNUNG DES ARZNEIMITTELS SOWIE ART(EN) DER ANWENDUNG"/>
				<code>
					<coding>
						<system value="http://spor.ema.europa.eu/v1/example-sections"/>
						<code value="${document[n].section[n].subsection[n].typeCode}"/>
						<display value="${document[n].section[n].subsection[n].typeDisplay}"/>
					</coding>
				</code>
		<text>
			<status value="additional"/>
			<div xmlns="http://www.w3.org/1999/xhtml">
		    <p class="MsoNormal"></p><p class="MsoNormal"><span lang="DE">GONAL‑f 1050 I.E./1,75 ml Pulver zur Herstellung einer Injektionslösung</span></p><p class="MsoNormal"><span lang="DE">Follitropin alfa</span></p><p class="MsoNormal"><span lang="DE">s.c.</span></p><p class="MsoNormal"></p><p class="MsoNormal"></p>
			</div>
		</text>
		
    	    
		
</section>
			    
    	    

			    
		               
<section>
			<title value="2.       HINWEISE ZUR ANWENDUNG"/>
				<code>
					<coding>
						<system value="http://spor.ema.europa.eu/v1/example-sections"/>
						<code value="${document[n].section[n].subsection[n].typeCode}"/>
						<display value="${document[n].section[n].subsection[n].typeDisplay}"/>
					</coding>
				</code>
		<text>
			<status value="additional"/>
			<div xmlns="http://www.w3.org/1999/xhtml">
		    <p class="MsoNormal"></p><p class="MsoNormal"></p>
			</div>
		</text>
		
    	    
		
</section>
			    
    	    

			    
		               
<section>
			<title value="3.       VERFALLDATUM"/>
				<code>
					<coding>
						<system value="http://spor.ema.europa.eu/v1/example-sections"/>
						<code value="${document[n].section[n].subsection[n].typeCode}"/>
						<display value="${document[n].section[n].subsection[n].typeDisplay}"/>
					</coding>
				</code>
		<text>
			<status value="additional"/>
			<div xmlns="http://www.w3.org/1999/xhtml">
		    <p class="MsoNormal"></p><p class="MsoNormal"><span lang="DE">verw. bis</span></p><p class="MsoNormal"></p><p class="MsoNormal"></p><div style="border:solid windowtext 1.0pt;padding:1.0pt 4.0pt 1.0pt 4.0pt"> <p class="MsoNormal" style="margin-left:28.35pt;text-indent:-28.35pt;border:none; padding:0in"><b><span lang="DE">4.       DATUM DER REKONSTITUTION</span></b></p> </div><p class="MsoNormal"></p><p class="MsoNormal"><span lang="DE">Datum:</span></p><p class="MsoNormal"></p><p class="MsoNormal"></p>
			</div>
		</text>
		
    	    
		
</section>
			    
    	    

			    
		               
<section>
			<title value="5.       CHARGENBEZEICHNUNG"/>
				<code>
					<coding>
						<system value="http://spor.ema.europa.eu/v1/example-sections"/>
						<code value="${document[n].section[n].subsection[n].typeCode}"/>
						<display value="${document[n].section[n].subsection[n].typeDisplay}"/>
					</coding>
				</code>
		<text>
			<status value="additional"/>
			<div xmlns="http://www.w3.org/1999/xhtml">
		    <p class="MsoNormal"></p><p class="MsoNormal"><span lang="DE">Ch.‑B.</span></p><p class="MsoNormal"></p><p class="MsoNormal"></p>
			</div>
		</text>
		
    	    
		
</section>
			    
    	    

			    
		               
<section>
			<title value="6.       INHALT NACH GEWICHT, VOLUMEN ODER EINHEITEN"/>
				<code>
					<coding>
						<system value="http://spor.ema.europa.eu/v1/example-sections"/>
						<code value="${document[n].section[n].subsection[n].typeCode}"/>
						<display value="${document[n].section[n].subsection[n].typeDisplay}"/>
					</coding>
				</code>
		<text>
			<status value="additional"/>
			<div xmlns="http://www.w3.org/1999/xhtml">
		    <p class="MsoNormal"></p><p class="MsoNormal"><span lang="DE">1 200 I.E./Durchstechflasche</span></p><p class="MsoNormal"></p><p class="MsoNormal"></p>
			</div>
		</text>
		
    	    
		
</section>
			    
    	    

			    
		               
<section>
			<title value="7.       WEITERE ANGABEN"/>
				<code>
					<coding>
						<system value="http://spor.ema.europa.eu/v1/example-sections"/>
						<code value="${document[n].section[n].subsection[n].typeCode}"/>
						<display value="${document[n].section[n].subsection[n].typeDisplay}"/>
					</coding>
				</code>
		<text>
			<status value="additional"/>
			<div xmlns="http://www.w3.org/1999/xhtml">
		    <p class="MsoNormal"></p><p class="MsoNormal"></p><span lang="DE" style='font-size:11.0pt;font-family:"Times New Roman",serif'><br clear="all" style="page-break-before:always"/> </span><br clear="all" style="page-break-before:always"/>
			</div>
		</text>
		
    	    
		
</section>
			    
    	    

			    
		               
<section>
			<title value="1.       BEZEICHNUNG DES ARZNEIMITTELS SOWIE ART(EN) DER ANWENDUNG"/>
				<code>
					<coding>
						<system value="http://spor.ema.europa.eu/v1/example-sections"/>
						<code value="${document[n].section[n].subsection[n].typeCode}"/>
						<display value="${document[n].section[n].subsection[n].typeDisplay}"/>
					</coding>
				</code>
		<text>
			<status value="additional"/>
			<div xmlns="http://www.w3.org/1999/xhtml">
		    <p class="MsoNormal"></p><p class="MsoNormal"><span lang="DE">GONAL‑f 1050 I.E./1,75 ml Pulver zur Herstellung einer Injektionslösung</span></p><p class="MsoNormal"><span lang="DE">Follitropin alfa</span></p><p class="MsoNormal"><span lang="DE">s.c.</span></p><p class="MsoNormal"></p><p class="MsoNormal"></p>
			</div>
		</text>
		
    	    
		
</section>
			    
    	    

			    
		               
<section>
			<title value="2.       HINWEISE ZUR ANWENDUNG"/>
				<code>
					<coding>
						<system value="http://spor.ema.europa.eu/v1/example-sections"/>
						<code value="${document[n].section[n].subsection[n].typeCode}"/>
						<display value="${document[n].section[n].subsection[n].typeDisplay}"/>
					</coding>
				</code>
		<text>
			<status value="additional"/>
			<div xmlns="http://www.w3.org/1999/xhtml">
		    <p class="MsoNormal"></p><p class="MsoNormal"></p>
			</div>
		</text>
		
    	    
		
</section>
			    
    	    

			    
		               
<section>
			<title value="3.       VERFALLDATUM"/>
				<code>
					<coding>
						<system value="http://spor.ema.europa.eu/v1/example-sections"/>
						<code value="${document[n].section[n].subsection[n].typeCode}"/>
						<display value="${document[n].section[n].subsection[n].typeDisplay}"/>
					</coding>
				</code>
		<text>
			<status value="additional"/>
			<div xmlns="http://www.w3.org/1999/xhtml">
		    <p class="MsoNormal"></p><p class="MsoNormal"><span lang="DE">verw. bis</span></p><p class="MsoNormal"></p><p class="MsoNormal"></p><div style="border:solid windowtext 1.0pt;padding:1.0pt 4.0pt 1.0pt 4.0pt"> <p class="MsoNormal" style="margin-left:28.35pt;text-indent:-28.35pt;border:none; padding:0in"><b><span lang="DE">4.       DATUM DER REKONSTITUTION</span></b></p> </div><p class="MsoNormal"></p><p class="MsoNormal"><span lang="DE">Datum:</span></p><p class="MsoNormal"></p><p class="MsoNormal"></p>
			</div>
		</text>
		
    	    
		
</section>
			    
    	    

			    
		               
<section>
			<title value="5.       CHARGENBEZEICHNUNG"/>
				<code>
					<coding>
						<system value="http://spor.ema.europa.eu/v1/example-sections"/>
						<code value="${document[n].section[n].subsection[n].typeCode}"/>
						<display value="${document[n].section[n].subsection[n].typeDisplay}"/>
					</coding>
				</code>
		<text>
			<status value="additional"/>
			<div xmlns="http://www.w3.org/1999/xhtml">
		    <p class="MsoNormal"></p><p class="MsoNormal"><span lang="DE">Ch.‑B.</span></p><p class="MsoNormal"></p><p class="MsoNormal"></p>
			</div>
		</text>
		
    	    
		
</section>
			    
    	    

			    
		               
<section>
			<title value="6.       INHALT NACH GEWICHT, VOLUMEN ODER EINHEITEN"/>
				<code>
					<coding>
						<system value="http://spor.ema.europa.eu/v1/example-sections"/>
						<code value="${document[n].section[n].subsection[n].typeCode}"/>
						<display value="${document[n].section[n].subsection[n].typeDisplay}"/>
					</coding>
				</code>
		<text>
			<status value="additional"/>
			<div xmlns="http://www.w3.org/1999/xhtml">
		    <p class="MsoNormal"></p><p class="MsoNormal"><span lang="DE">1 200 I.E./Durchstechflasche</span></p><p class="MsoNormal"></p><p class="MsoNormal"></p>
			</div>
		</text>
		
    	    
		
</section>
			    
    	    

			    
		               
<section>
			<title value="7.       WEITERE ANGABEN"/>
				<code>
					<coding>
						<system value="http://spor.ema.europa.eu/v1/example-sections"/>
						<code value="${document[n].section[n].subsection[n].typeCode}"/>
						<display value="${document[n].section[n].subsection[n].typeDisplay}"/>
					</coding>
				</code>
		<text>
			<status value="additional"/>
			<div xmlns="http://www.w3.org/1999/xhtml">
		    <p class="MsoNormal"></p><p class="MsoNormal"></p><span lang="DE" style='font-size:11.0pt;font-family:"Times New Roman",serif'><br clear="all" style="page-break-before:always"/> </span><br clear="all" style="page-break-before:always"/>
			</div>
		</text>
		
    	    
		
</section>
			    
    	    
		
</section>
			    
    	    
				
			    
						
		               
<section>
			<title value="MINDESTANGABEN AUF KLEINEN BEHÄLTNISSEN"/>
				<code>
					<coding>
						<system value="http://spor.ema.europa.eu/v1/example-sections"/>
						<code value="${document[n].section[n].subsection[n].typeCode}"/>
						<display value="${document[n].section[n].subsection[n].typeDisplay}"/>
					</coding>
				</code>
		<text>
			<status value="additional"/>
			<div xmlns="http://www.w3.org/1999/xhtml">
		    <div style="border:solid windowtext 1.0pt;padding:1.0pt 4.0pt 1.0pt 4.0pt"> <p class="MsoNormal" style="border:none;padding:0in"></p> <p class="MsoNormal" style="border:none;padding:0in"><b><span lang="DE">GONAL‑f 1050 I.E./1,75 ML, ETIKETT DER DURCHSTECHFLASCHE</span></b></p> </div><p class="MsoNormal"></p><p class="MsoNormal"></p>
			</div>
		</text>
		
    	    

			    
		               
<section>
			<title value="1.       BEZEICHNUNG DES ARZNEIMITTELS SOWIE ART(EN) DER ANWENDUNG"/>
				<code>
					<coding>
						<system value="http://spor.ema.europa.eu/v1/example-sections"/>
						<code value="${document[n].section[n].subsection[n].typeCode}"/>
						<display value="${document[n].section[n].subsection[n].typeDisplay}"/>
					</coding>
				</code>
		<text>
			<status value="additional"/>
			<div xmlns="http://www.w3.org/1999/xhtml">
		    <p class="MsoNormal"></p><p class="MsoNormal"><span lang="DE">GONAL‑f 1050 I.E./1,75 ml Pulver zur Herstellung einer Injektionslösung</span></p><p class="MsoNormal"><span lang="DE">Follitropin alfa</span></p><p class="MsoNormal"><span lang="DE">s.c.</span></p><p class="MsoNormal"></p><p class="MsoNormal"></p>
			</div>
		</text>
		
    	    
		
</section>
			    
    	    

			    
		               
<section>
			<title value="2.       HINWEISE ZUR ANWENDUNG"/>
				<code>
					<coding>
						<system value="http://spor.ema.europa.eu/v1/example-sections"/>
						<code value="${document[n].section[n].subsection[n].typeCode}"/>
						<display value="${document[n].section[n].subsection[n].typeDisplay}"/>
					</coding>
				</code>
		<text>
			<status value="additional"/>
			<div xmlns="http://www.w3.org/1999/xhtml">
		    <p class="MsoNormal"></p><p class="MsoNormal"></p>
			</div>
		</text>
		
    	    
		
</section>
			    
    	    

			    
		               
<section>
			<title value="3.       VERFALLDATUM"/>
				<code>
					<coding>
						<system value="http://spor.ema.europa.eu/v1/example-sections"/>
						<code value="${document[n].section[n].subsection[n].typeCode}"/>
						<display value="${document[n].section[n].subsection[n].typeDisplay}"/>
					</coding>
				</code>
		<text>
			<status value="additional"/>
			<div xmlns="http://www.w3.org/1999/xhtml">
		    <p class="MsoNormal"></p><p class="MsoNormal"><span lang="DE">verw. bis</span></p><p class="MsoNormal"></p><p class="MsoNormal"></p><div style="border:solid windowtext 1.0pt;padding:1.0pt 4.0pt 1.0pt 4.0pt"> <p class="MsoNormal" style="margin-left:28.35pt;text-indent:-28.35pt;border:none; padding:0in"><b><span lang="DE">4.       DATUM DER REKONSTITUTION</span></b></p> </div><p class="MsoNormal"></p><p class="MsoNormal"><span lang="DE">Datum:</span></p><p class="MsoNormal"></p><p class="MsoNormal"></p>
			</div>
		</text>
		
    	    
		
</section>
			    
    	    

			    
		               
<section>
			<title value="5.       CHARGENBEZEICHNUNG"/>
				<code>
					<coding>
						<system value="http://spor.ema.europa.eu/v1/example-sections"/>
						<code value="${document[n].section[n].subsection[n].typeCode}"/>
						<display value="${document[n].section[n].subsection[n].typeDisplay}"/>
					</coding>
				</code>
		<text>
			<status value="additional"/>
			<div xmlns="http://www.w3.org/1999/xhtml">
		    <p class="MsoNormal"></p><p class="MsoNormal"><span lang="DE">Ch.‑B.</span></p><p class="MsoNormal"></p><p class="MsoNormal"></p>
			</div>
		</text>
		
    	    
		
</section>
			    
    	    

			    
		               
<section>
			<title value="6.       INHALT NACH GEWICHT, VOLUMEN ODER EINHEITEN"/>
				<code>
					<coding>
						<system value="http://spor.ema.europa.eu/v1/example-sections"/>
						<code value="${document[n].section[n].subsection[n].typeCode}"/>
						<display value="${document[n].section[n].subsection[n].typeDisplay}"/>
					</coding>
				</code>
		<text>
			<status value="additional"/>
			<div xmlns="http://www.w3.org/1999/xhtml">
		    <p class="MsoNormal"></p><p class="MsoNormal"><span lang="DE">1 200 I.E./Durchstechflasche</span></p><p class="MsoNormal"></p><p class="MsoNormal"></p>
			</div>
		</text>
		
    	    
		
</section>
			    
    	    

			    
		               
<section>
			<title value="7.       WEITERE ANGABEN"/>
				<code>
					<coding>
						<system value="http://spor.ema.europa.eu/v1/example-sections"/>
						<code value="${document[n].section[n].subsection[n].typeCode}"/>
						<display value="${document[n].section[n].subsection[n].typeDisplay}"/>
					</coding>
				</code>
		<text>
			<status value="additional"/>
			<div xmlns="http://www.w3.org/1999/xhtml">
		    <p class="MsoNormal"></p><p class="MsoNormal"></p><span lang="DE" style='font-size:11.0pt;font-family:"Times New Roman",serif'><br clear="all" style="page-break-before:always"/> </span><br clear="all" style="page-break-before:always"/>
			</div>
		</text>
		
    	    
		
</section>
			    
    	    

			    
		               
<section>
			<title value="1.       BEZEICHNUNG DES ARZNEIMITTELS SOWIE ART(EN) DER ANWENDUNG"/>
				<code>
					<coding>
						<system value="http://spor.ema.europa.eu/v1/example-sections"/>
						<code value="${document[n].section[n].subsection[n].typeCode}"/>
						<display value="${document[n].section[n].subsection[n].typeDisplay}"/>
					</coding>
				</code>
		<text>
			<status value="additional"/>
			<div xmlns="http://www.w3.org/1999/xhtml">
		    <p class="MsoNormal"></p><p class="MsoNormal"><span lang="DE">GONAL‑f 1050 I.E./1,75 ml Pulver zur Herstellung einer Injektionslösung</span></p><p class="MsoNormal"><span lang="DE">Follitropin alfa</span></p><p class="MsoNormal"><span lang="DE">s.c.</span></p><p class="MsoNormal"></p><p class="MsoNormal"></p>
			</div>
		</text>
		
    	    
		
</section>
			    
    	    

			    
		               
<section>
			<title value="2.       HINWEISE ZUR ANWENDUNG"/>
				<code>
					<coding>
						<system value="http://spor.ema.europa.eu/v1/example-sections"/>
						<code value="${document[n].section[n].subsection[n].typeCode}"/>
						<display value="${document[n].section[n].subsection[n].typeDisplay}"/>
					</coding>
				</code>
		<text>
			<status value="additional"/>
			<div xmlns="http://www.w3.org/1999/xhtml">
		    <p class="MsoNormal"></p><p class="MsoNormal"></p>
			</div>
		</text>
		
    	    
		
</section>
			    
    	    

			    
		               
<section>
			<title value="3.       VERFALLDATUM"/>
				<code>
					<coding>
						<system value="http://spor.ema.europa.eu/v1/example-sections"/>
						<code value="${document[n].section[n].subsection[n].typeCode}"/>
						<display value="${document[n].section[n].subsection[n].typeDisplay}"/>
					</coding>
				</code>
		<text>
			<status value="additional"/>
			<div xmlns="http://www.w3.org/1999/xhtml">
		    <p class="MsoNormal"></p><p class="MsoNormal"><span lang="DE">verw. bis</span></p><p class="MsoNormal"></p><p class="MsoNormal"></p><div style="border:solid windowtext 1.0pt;padding:1.0pt 4.0pt 1.0pt 4.0pt"> <p class="MsoNormal" style="margin-left:28.35pt;text-indent:-28.35pt;border:none; padding:0in"><b><span lang="DE">4.       DATUM DER REKONSTITUTION</span></b></p> </div><p class="MsoNormal"></p><p class="MsoNormal"><span lang="DE">Datum:</span></p><p class="MsoNormal"></p><p class="MsoNormal"></p>
			</div>
		</text>
		
    	    
		
</section>
			    
    	    

			    
		               
<section>
			<title value="5.       CHARGENBEZEICHNUNG"/>
				<code>
					<coding>
						<system value="http://spor.ema.europa.eu/v1/example-sections"/>
						<code value="${document[n].section[n].subsection[n].typeCode}"/>
						<display value="${document[n].section[n].subsection[n].typeDisplay}"/>
					</coding>
				</code>
		<text>
			<status value="additional"/>
			<div xmlns="http://www.w3.org/1999/xhtml">
		    <p class="MsoNormal"></p><p class="MsoNormal"><span lang="DE">Ch.‑B.</span></p><p class="MsoNormal"></p><p class="MsoNormal"></p>
			</div>
		</text>
		
    	    
		
</section>
			    
    	    

			    
		               
<section>
			<title value="6.       INHALT NACH GEWICHT, VOLUMEN ODER EINHEITEN"/>
				<code>
					<coding>
						<system value="http://spor.ema.europa.eu/v1/example-sections"/>
						<code value="${document[n].section[n].subsection[n].typeCode}"/>
						<display value="${document[n].section[n].subsection[n].typeDisplay}"/>
					</coding>
				</code>
		<text>
			<status value="additional"/>
			<div xmlns="http://www.w3.org/1999/xhtml">
		    <p class="MsoNormal"></p><p class="MsoNormal"><span lang="DE">1 200 I.E./Durchstechflasche</span></p><p class="MsoNormal"></p><p class="MsoNormal"></p>
			</div>
		</text>
		
    	    
		
</section>
			    
    	    

			    
		               
<section>
			<title value="7.       WEITERE ANGABEN"/>
				<code>
					<coding>
						<system value="http://spor.ema.europa.eu/v1/example-sections"/>
						<code value="${document[n].section[n].subsection[n].typeCode}"/>
						<display value="${document[n].section[n].subsection[n].typeDisplay}"/>
					</coding>
				</code>
		<text>
			<status value="additional"/>
			<div xmlns="http://www.w3.org/1999/xhtml">
		    <p class="MsoNormal"></p><p class="MsoNormal"></p><span lang="DE" style='font-size:11.0pt;font-family:"Times New Roman",serif'><br clear="all" style="page-break-before:always"/> </span><br clear="all" style="page-break-before:always"/>
			</div>
		</text>
		
    	    
		
</section>
			    
    	    
		
</section>
			    
    	    
		
	
		
		
    	    
				
			    
						
		               
<section>
			<title value="ANGABEN AUF DER ÄUSSEREN UMHÜLLUNG"/>
				<code>
					<coding>
						<system value="http://spor.ema.europa.eu/v1/example-sections"/>
						<code value="${document[n].section[n].subsection[n].typeCode}"/>
						<display value="${document[n].section[n].subsection[n].typeDisplay}"/>
					</coding>
				</code>
		<text>
			<status value="additional"/>
			<div xmlns="http://www.w3.org/1999/xhtml">
		    <div style="border:solid windowtext 1.0pt;padding:1.0pt 4.0pt 1.0pt 4.0pt"> <p class="MsoNormal" style="border:none;padding:0in"></p> <p class="MsoNormal" style="border:none;padding:0in"><b><span lang="DE">GONAL-f 450 I.E./0,75 ML, SCHACHTEL MIT 1 DURCHSTECHFLASCHE UND 1 FERTIGSPRITZE</span></b></p> </div><p class="MsoNormal" style="margin-left:-7.1pt;text-indent:7.1pt"></p><p class="MsoNormal" style="margin-left:-7.1pt;text-indent:7.1pt"></p>
			</div>
		</text>
		
    	    

			    
		               
<section>
			<title value="1.       BEZEICHNUNG DES ARZNEIMITTELS"/>
				<code>
					<coding>
						<system value="http://spor.ema.europa.eu/v1/example-sections"/>
						<code value="${document[n].section[n].subsection[n].typeCode}"/>
						<display value="${document[n].section[n].subsection[n].typeDisplay}"/>
					</coding>
				</code>
		<text>
			<status value="additional"/>
			<div xmlns="http://www.w3.org/1999/xhtml">
		    <p class="MsoNormal"></p><p class="MsoNormal"><span lang="DE">GONAL‑f 450 I.E./0,75 ml </span><span lang="DE">Pulver und Lösungsmittel zur Herstellung einer Injektionslösung</span></p><p class="MsoNormal"><span lang="DE">Follitropin alfa</span></p><p class="MsoNormal"><u><span lang="DE"></span></u></p><p class="MsoNormal"><u><span lang="DE"></span></u></p>
			</div>
		</text>
		
    	    
		
</section>
			    
    	    

			    
		               
<section>
			<title value="2.       WIRKSTOFF(E)"/>
				<code>
					<coding>
						<system value="http://spor.ema.europa.eu/v1/example-sections"/>
						<code value="${document[n].section[n].subsection[n].typeCode}"/>
						<display value="${document[n].section[n].subsection[n].typeDisplay}"/>
					</coding>
				</code>
		<text>
			<status value="additional"/>
			<div xmlns="http://www.w3.org/1999/xhtml">
		    <p class="MsoNormal"></p><p class="MsoNormal"><span lang="DE">Jede Durchstechflasche zur Mehrfachdosierung enthält 44 Mikrogramm Follitropin alfa, entsprechend 600 I.E. Pro ml der rekonstituierten Lösung sind 600 I.E. enthalten.</span></p><p class="MsoNormal"></p><p class="MsoNormal"></p>
			</div>
		</text>
		
    	    
		
</section>
			    
    	    

			    
		               
<section>
			<title value="3.       SONSTIGE BESTANDTEILE"/>
				<code>
					<coding>
						<system value="http://spor.ema.europa.eu/v1/example-sections"/>
						<code value="${document[n].section[n].subsection[n].typeCode}"/>
						<display value="${document[n].section[n].subsection[n].typeDisplay}"/>
					</coding>
				</code>
		<text>
			<status value="additional"/>
			<div xmlns="http://www.w3.org/1999/xhtml">
		    <p class="MsoNormal"></p><p class="MsoNormal"><span lang="DE">Sonstige Bestandteile: Sucrose, Natriumdihydrogenphosphat‑Monohydrat, Dinatriumhydrogenphosphat‑Dihydrat, konzentrierte Phosphorsäure und Natriumhydroxid.</span></p><p class="MsoNormal"><span lang="DE">Lösungsmittel zur Herstellung einer Injektionslösung: Wasser für Injektionszwecke, Benzylalkohol 0,9%</span></p><p class="MsoNormal"></p><p class="MsoNormal"></p>
			</div>
		</text>
		
    	    
		
</section>
			    
    	    

			    
		               
<section>
			<title value="4.       DARREICHUNGSFORM UND INHALT"/>
				<code>
					<coding>
						<system value="http://spor.ema.europa.eu/v1/example-sections"/>
						<code value="${document[n].section[n].subsection[n].typeCode}"/>
						<display value="${document[n].section[n].subsection[n].typeDisplay}"/>
					</coding>
				</code>
		<text>
			<status value="additional"/>
			<div xmlns="http://www.w3.org/1999/xhtml">
		    <p class="MsoNormal"></p><p class="MsoNormal"><span lang="DE">1 Durchstechflasche mit Pulver zur Herstellung einer Injektionslösung.</span></p><p class="MsoNormal"><span lang="DE">1 Fertigspritze mit 1 ml Lösungsmittel.</span></p><p class="MsoNormal"><span lang="DE">6 Einwegspritzen zur Injektion, skaliert in FSH‑Einheiten.</span></p><p class="MsoNormal"></p><p class="MsoNormal"></p>
			</div>
		</text>
		
    	    
		
</section>
			    
    	    

			    
		               
<section>
			<title value="5.       HINWEISE ZUR UND ART(EN) DER ANWENDUNG"/>
				<code>
					<coding>
						<system value="http://spor.ema.europa.eu/v1/example-sections"/>
						<code value="${document[n].section[n].subsection[n].typeCode}"/>
						<display value="${document[n].section[n].subsection[n].typeDisplay}"/>
					</coding>
				</code>
		<text>
			<status value="additional"/>
			<div xmlns="http://www.w3.org/1999/xhtml">
		    <p class="MsoNormal"></p><p class="MsoNormal"><span lang="DE">Für mehrere Injektionen vorgesehen.</span></p><p class="MsoNormal"><span lang="DE">Packungsbeilage beachten.</span></p><p class="MsoNormal"><span lang="DE">Subkutane Anwendung.</span></p><p class="MsoNormal"></p><p class="MsoNormal"></p>
			</div>
		</text>
		
    	    
		
</section>
			    
    	    

			    
		               
<section>
			<title value="6.       WARNHINWEIS, DASS DAS ARZNEIMITTEL FÜR KINDER UNZUGÄNGLICH AUFZUBEWAHREN IST"/>
				<code>
					<coding>
						<system value="http://spor.ema.europa.eu/v1/example-sections"/>
						<code value="${document[n].section[n].subsection[n].typeCode}"/>
						<display value="${document[n].section[n].subsection[n].typeDisplay}"/>
					</coding>
				</code>
		<text>
			<status value="additional"/>
			<div xmlns="http://www.w3.org/1999/xhtml">
		    <p class="MsoNormal"></p><p class="MsoNormal"><span lang="DE">Arzneimittel für Kinder unzugänglich aufbewahren.</span></p><p class="MsoNormal"></p><p class="MsoNormal"></p>
			</div>
		</text>
		
    	    
		
</section>
			    
    	    

			    
		               
<section>
			<title value="7.       WEITERE WARNHINWEISE, FALLS ERFORDERLICH"/>
				<code>
					<coding>
						<system value="http://spor.ema.europa.eu/v1/example-sections"/>
						<code value="${document[n].section[n].subsection[n].typeCode}"/>
						<display value="${document[n].section[n].subsection[n].typeDisplay}"/>
					</coding>
				</code>
		<text>
			<status value="additional"/>
			<div xmlns="http://www.w3.org/1999/xhtml">
		    <p class="MsoNormal"></p><p class="MsoNormal"><span lang="DE">Die Fertigspritze mit Lösungsmittel darf nur zur Rekonstitution verwendet werden.</span></p><p class="MsoNormal"><span lang="DE">Die rekonstituierte Durchstechflasche sollte nur für einen einzigen Patienten verwendet werden.</span></p><p class="MsoNormal"></p><p class="MsoNormal"></p>
			</div>
		</text>
		
    	    
		
</section>
			    
    	    

			    
		               
<section>
			<title value="8.       VERFALLDATUM"/>
				<code>
					<coding>
						<system value="http://spor.ema.europa.eu/v1/example-sections"/>
						<code value="${document[n].section[n].subsection[n].typeCode}"/>
						<display value="${document[n].section[n].subsection[n].typeDisplay}"/>
					</coding>
				</code>
		<text>
			<status value="additional"/>
			<div xmlns="http://www.w3.org/1999/xhtml">
		    <p class="MsoNormal" style="page-break-after:avoid"></p><p class="MsoNormal"><span lang="DE">verwendbar bis</span></p><p class="MsoNormal"></p><p class="MsoNormal"></p>
			</div>
		</text>
		
    	    
		
</section>
			    
    	    

			    
		               
<section>
			<title value="9.       BESONDERE VORSICHTSMASSNAHMEN FÜR DIE AUFBEWAHRUNG"/>
				<code>
					<coding>
						<system value="http://spor.ema.europa.eu/v1/example-sections"/>
						<code value="${document[n].section[n].subsection[n].typeCode}"/>
						<display value="${document[n].section[n].subsection[n].typeDisplay}"/>
					</coding>
				</code>
		<text>
			<status value="additional"/>
			<div xmlns="http://www.w3.org/1999/xhtml">
		    <p class="MsoNormal"></p><p class="MsoNormal"><span lang="DE">Vor der Rekonstitution nicht über 25 ºC lagern. In der Originalverpackung aufbewahren, um den Inhalt vor Licht zu schützen.</span></p><p class="MsoNormal"><span lang="DE">Nach der Rekonstitution nicht über 25 ºC lagern. Nicht einfrieren. Im Originalbehältnis aufbewahren.</span></p><p class="MsoNormal"></p><p class="MsoNormal"></p>
			</div>
		</text>
		
    	    
		
</section>
			    
    	    

			    
		               
<section>
			<title value="10.     GEGEBENENFALLS BESONDERE VORSICHTSMASSNAHMEN FÜR DIE BESEITIGUNG VON NICHT VERWENDETEM ARZNEIMITTEL ODER DAVON STAMMENDEN ABFALLMATERIALIEN"/>
				<code>
					<coding>
						<system value="http://spor.ema.europa.eu/v1/example-sections"/>
						<code value="${document[n].section[n].subsection[n].typeCode}"/>
						<display value="${document[n].section[n].subsection[n].typeDisplay}"/>
					</coding>
				</code>
		<text>
			<status value="additional"/>
			<div xmlns="http://www.w3.org/1999/xhtml">
		    <p class="MsoNormal"></p><p class="MsoNormal"><span lang="DE">Unverbrauchte restliche Injektionslösung ist nach 28 Tagen zu verwerfen.</span></p><p class="MsoNormal"></p><p class="MsoNormal"></p>
			</div>
		</text>
		
    	    
		
</section>
			    
    	    

			    
		               
<section>
			<title value="11.     NAME UND ANSCHRIFT DES PHARMAZEUTISCHEN UNTERNEHMERS"/>
				<code>
					<coding>
						<system value="http://spor.ema.europa.eu/v1/example-sections"/>
						<code value="${document[n].section[n].subsection[n].typeCode}"/>
						<display value="${document[n].section[n].subsection[n].typeDisplay}"/>
					</coding>
				</code>
		<text>
			<status value="additional"/>
			<div xmlns="http://www.w3.org/1999/xhtml">
		    <p class="MsoNormal" style="margin-left:28.35pt;text-indent:-28.35pt"></p><p class="MsoListParagraph" style="margin:0in;margin-bottom:.0001pt;line-height: normal;page-break-after:avoid"><span lang="DE" style="font-size:11.0pt">Merck Europe B.V.</span></p><p class="MsoListParagraph" style="margin:0in;margin-bottom:.0001pt;line-height: normal;page-break-after:avoid"><span lang="DE" style="font-size:11.0pt">Gustav Mahlerplein 102</span></p><p class="MsoListParagraph" style="margin:0in;margin-bottom:.0001pt;line-height: normal;page-break-after:avoid"><span lang="DE" style="font-size:11.0pt">1082 MA Amsterdam</span></p><p class="MsoNormal" style="margin-left:28.35pt;text-indent:-28.35pt"><span lang="DE">Niederlande</span></p><p class="MsoNormal" style="margin-left:28.35pt;text-indent:-28.35pt"></p><p class="MsoNormal" style="margin-left:28.35pt;text-indent:-28.35pt"></p>
			</div>
		</text>
		
    	    
		
</section>
			    
    	    

			    
		               
<section>
			<title value="12.     ZULASSUNGSNUMMER(N)"/>
				<code>
					<coding>
						<system value="http://spor.ema.europa.eu/v1/example-sections"/>
						<code value="${document[n].section[n].subsection[n].typeCode}"/>
						<display value="${document[n].section[n].subsection[n].typeDisplay}"/>
					</coding>
				</code>
		<text>
			<status value="additional"/>
			<div xmlns="http://www.w3.org/1999/xhtml">
		    <p class="MsoNormal" style="margin-left:28.35pt;text-indent:-28.35pt"></p><p class="MsoNormal" style="margin-left:85.05pt;text-indent:-85.05pt"><span lang="DE">EU/1/95/001/031   </span><span lang="DE" style="color:black;background: #D9D9D9">1 Durchstechflasche mit Pulver zur Herstellung einer Injektionslösung<br/> 1 Fertigspritze mit Lösungsmittel<br/> 6 Einwegspritzen zur Injektion</span></p><p class="MsoNormal"></p><p class="MsoNormal"></p>
			</div>
		</text>
		
    	    
		
</section>
			    
    	    

			    
		               
<section>
			<title value="13.     CHARGENBEZEICHNUNG"/>
				<code>
					<coding>
						<system value="http://spor.ema.europa.eu/v1/example-sections"/>
						<code value="${document[n].section[n].subsection[n].typeCode}"/>
						<display value="${document[n].section[n].subsection[n].typeDisplay}"/>
					</coding>
				</code>
		<text>
			<status value="additional"/>
			<div xmlns="http://www.w3.org/1999/xhtml">
		    <p class="MsoNormal"></p><p class="MsoNormal"><span lang="DE">Ch.‑B.</span></p><p class="MsoNormal"><span lang="DE">Lösungsmittel Ch.‑B.</span></p><p class="MsoNormal"></p><p class="MsoNormal"></p>
			</div>
		</text>
		
    	    
		
</section>
			    
    	    

			    
		               
<section>
			<title value="14.     VERKAUFSABGRENZUNG"/>
				<code>
					<coding>
						<system value="http://spor.ema.europa.eu/v1/example-sections"/>
						<code value="${document[n].section[n].subsection[n].typeCode}"/>
						<display value="${document[n].section[n].subsection[n].typeDisplay}"/>
					</coding>
				</code>
		<text>
			<status value="additional"/>
			<div xmlns="http://www.w3.org/1999/xhtml">
		    <p class="MsoNormal"></p><p class="MsoNormal"></p>
			</div>
		</text>
		
    	    
		
</section>
			    
    	    

			    
		               
<section>
			<title value="15.     HINWEISE FÜR DEN GEBRAUCH"/>
				<code>
					<coding>
						<system value="http://spor.ema.europa.eu/v1/example-sections"/>
						<code value="${document[n].section[n].subsection[n].typeCode}"/>
						<display value="${document[n].section[n].subsection[n].typeDisplay}"/>
					</coding>
				</code>
		<text>
			<status value="additional"/>
			<div xmlns="http://www.w3.org/1999/xhtml">
		    <p class="MsoNormal"></p><p class="MsoNormal"></p><div style="border:solid windowtext 1.0pt;padding:1.0pt 4.0pt 1.0pt 4.0pt"> <p class="MsoNormal" style="margin-left:28.35pt;text-indent:-28.35pt;page-break-after: avoid;border:none;padding:0in"><b><span lang="DE" style="text-transform:uppercase">16.     ANGABEN in BLINDENSCHRIFT</span></b></p> </div><p class="MsoNormal" style="page-break-after:avoid"></p><p class="MsoNormal"><span lang="DE">gonal‑f 450 i.e.</span></p><p class="MsoNormal"></p><p class="MsoNormal"></p>
			</div>
		</text>
		
    	    
		
</section>
			    
    	    

			    
		               
<section>
			<title value="17.     INDIVIDUELLES ERKENNUNGSMERKMAL – 2D-BARCODE"/>
				<code>
					<coding>
						<system value="http://spor.ema.europa.eu/v1/example-sections"/>
						<code value="${document[n].section[n].subsection[n].typeCode}"/>
						<display value="${document[n].section[n].subsection[n].typeDisplay}"/>
					</coding>
				</code>
		<text>
			<status value="additional"/>
			<div xmlns="http://www.w3.org/1999/xhtml">
		    <p class="MsoNormal" style="page-break-after:avoid"></p><p class="MsoNormal"><span lang="DE" style="color:black;background:#D9D9D9">2D-Barcode mit individuellem Erkennungsmerkmal.</span></p><p class="MsoNormal"></p><p class="MsoNormal"></p>
			</div>
		</text>
		
    	    
		
</section>
			    
    	    

			    
		               
<section>
			<title value="18.     INDIVIDUELLES ERKENNUNGSMERKMAL – VOM MENSCHEN LESBARES FORMAT"/>
				<code>
					<coding>
						<system value="http://spor.ema.europa.eu/v1/example-sections"/>
						<code value="${document[n].section[n].subsection[n].typeCode}"/>
						<display value="${document[n].section[n].subsection[n].typeDisplay}"/>
					</coding>
				</code>
		<text>
			<status value="additional"/>
			<div xmlns="http://www.w3.org/1999/xhtml">
		    <p class="MsoNormal" style="page-break-after:avoid"></p><p class="MsoNormal"><span lang="DE">PC</span></p><p class="MsoNormal"><span lang="DE">SN</span></p><p class="MsoNormal"><span lang="DE">NN</span></p><p class="MsoNormal"></p><span lang="DE" style='font-size:11.0pt;font-family:"Times New Roman",serif'><br clear="all" style="page-break-before:always"/> </span><br clear="all" style="page-break-before:always"/>
			</div>
		</text>
		
    	    
		
</section>
			    
    	    
		
</section>
			    
    	    
				
			    
						
		               
<section>
			<title value="MINDESTANGABEN AUF KLEINEN BEHÄLTNISSEN"/>
				<code>
					<coding>
						<system value="http://spor.ema.europa.eu/v1/example-sections"/>
						<code value="${document[n].section[n].subsection[n].typeCode}"/>
						<display value="${document[n].section[n].subsection[n].typeDisplay}"/>
					</coding>
				</code>
		<text>
			<status value="additional"/>
			<div xmlns="http://www.w3.org/1999/xhtml">
		    <div style="border:solid windowtext 1.0pt;padding:1.0pt 4.0pt 1.0pt 4.0pt"> <p class="MsoNormal" style="border:none;padding:0in"></p> <p class="MsoNormal" style="border:none;padding:0in"><b><span lang="DE">GONAL‑F 450 I.E./0,75 ML, ETIKETT DER DURCHSTECHFLASCHE</span></b></p> </div><p class="MsoNormal"></p><p class="MsoNormal"></p>
			</div>
		</text>
		
    	    

			    
		               
<section>
			<title value="1.       BEZEICHNUNG DES ARZNEIMITTELS SOWIE ART(EN) DER ANWENDUNG"/>
				<code>
					<coding>
						<system value="http://spor.ema.europa.eu/v1/example-sections"/>
						<code value="${document[n].section[n].subsection[n].typeCode}"/>
						<display value="${document[n].section[n].subsection[n].typeDisplay}"/>
					</coding>
				</code>
		<text>
			<status value="additional"/>
			<div xmlns="http://www.w3.org/1999/xhtml">
		    <p class="MsoNormal"></p><p class="MsoNormal"><span lang="DE">GONAL‑f 450 I.E./0,75 ml Pulver zur Herstellung einer Injektionslösung</span></p><p class="MsoNormal"><span lang="DE">Follitropin alfa</span></p><p class="MsoNormal"><span lang="DE">s.c.</span></p><p class="MsoNormal"></p><p class="MsoNormal"></p>
			</div>
		</text>
		
    	    
		
</section>
			    
    	    

			    
		               
<section>
			<title value="2.       HINWEISE ZUR ANWENDUNG"/>
				<code>
					<coding>
						<system value="http://spor.ema.europa.eu/v1/example-sections"/>
						<code value="${document[n].section[n].subsection[n].typeCode}"/>
						<display value="${document[n].section[n].subsection[n].typeDisplay}"/>
					</coding>
				</code>
		<text>
			<status value="additional"/>
			<div xmlns="http://www.w3.org/1999/xhtml">
		    <p class="MsoNormal"></p><p class="MsoNormal"></p>
			</div>
		</text>
		
    	    
		
</section>
			    
    	    

			    
		               
<section>
			<title value="3.       VERFALLDATUM"/>
				<code>
					<coding>
						<system value="http://spor.ema.europa.eu/v1/example-sections"/>
						<code value="${document[n].section[n].subsection[n].typeCode}"/>
						<display value="${document[n].section[n].subsection[n].typeDisplay}"/>
					</coding>
				</code>
		<text>
			<status value="additional"/>
			<div xmlns="http://www.w3.org/1999/xhtml">
		    <p class="MsoNormal"></p><p class="MsoNormal"><span lang="DE">verw. bis</span></p><p class="MsoNormal"></p><p class="MsoNormal"></p><div style="border:solid windowtext 1.0pt;padding:1.0pt 4.0pt 1.0pt 4.0pt"> <p class="MsoNormal" style="margin-left:28.35pt;text-indent:-28.35pt;border:none; padding:0in"><b><span lang="DE">4.       DATUM DER REKONSTITUTION</span></b></p> </div><p class="MsoNormal"></p><p class="MsoNormal"><span lang="DE">Datum:</span></p><p class="MsoNormal"></p><p class="MsoNormal"></p>
			</div>
		</text>
		
    	    
		
</section>
			    
    	    

			    
		               
<section>
			<title value="5.       CHARGENBEZEICHNUNG"/>
				<code>
					<coding>
						<system value="http://spor.ema.europa.eu/v1/example-sections"/>
						<code value="${document[n].section[n].subsection[n].typeCode}"/>
						<display value="${document[n].section[n].subsection[n].typeDisplay}"/>
					</coding>
				</code>
		<text>
			<status value="additional"/>
			<div xmlns="http://www.w3.org/1999/xhtml">
		    <p class="MsoNormal"></p><p class="MsoNormal"><span lang="DE">Ch.‑B.</span></p><p class="MsoNormal"></p><p class="MsoNormal"></p>
			</div>
		</text>
		
    	    
		
</section>
			    
    	    

			    
		               
<section>
			<title value="6.       INHALT NACH GEWICHT, VOLUMEN ODER EINHEITEN"/>
				<code>
					<coding>
						<system value="http://spor.ema.europa.eu/v1/example-sections"/>
						<code value="${document[n].section[n].subsection[n].typeCode}"/>
						<display value="${document[n].section[n].subsection[n].typeDisplay}"/>
					</coding>
				</code>
		<text>
			<status value="additional"/>
			<div xmlns="http://www.w3.org/1999/xhtml">
		    <p class="MsoNormal"></p><p class="MsoNormal"><span lang="DE">600 I.E./Durchstechflasche</span></p><p class="MsoNormal"></p><p class="MsoNormal"></p>
			</div>
		</text>
		
    	    
		
</section>
			    
    	    

			    
		               
<section>
			<title value="7.       WEITERE ANGABEN"/>
				<code>
					<coding>
						<system value="http://spor.ema.europa.eu/v1/example-sections"/>
						<code value="${document[n].section[n].subsection[n].typeCode}"/>
						<display value="${document[n].section[n].subsection[n].typeDisplay}"/>
					</coding>
				</code>
		<text>
			<status value="additional"/>
			<div xmlns="http://www.w3.org/1999/xhtml">
		    <p class="MsoNormal"></p><p class="MsoNormal"></p><span lang="DE" style='font-size:11.0pt;font-family:"Times New Roman",serif'><br clear="all" style="page-break-before:always"/> </span><br clear="all" style="page-break-before:always"/>
			</div>
		</text>
		
    	    
		
</section>
			    
    	    

			    
		               
<section>
			<title value="1.       BEZEICHNUNG DES ARZNEIMITTELS SOWIE ART(EN) DER ANWENDUNG"/>
				<code>
					<coding>
						<system value="http://spor.ema.europa.eu/v1/example-sections"/>
						<code value="${document[n].section[n].subsection[n].typeCode}"/>
						<display value="${document[n].section[n].subsection[n].typeDisplay}"/>
					</coding>
				</code>
		<text>
			<status value="additional"/>
			<div xmlns="http://www.w3.org/1999/xhtml">
		    <p class="MsoNormal"></p><p class="MsoNormal"><span lang="DE">GONAL‑f 450 I.E./0,75 ml Pulver zur Herstellung einer Injektionslösung</span></p><p class="MsoNormal"><span lang="DE">Follitropin alfa</span></p><p class="MsoNormal"><span lang="DE">s.c.</span></p><p class="MsoNormal"></p><p class="MsoNormal"></p>
			</div>
		</text>
		
    	    
		
</section>
			    
    	    

			    
		               
<section>
			<title value="2.       HINWEISE ZUR ANWENDUNG"/>
				<code>
					<coding>
						<system value="http://spor.ema.europa.eu/v1/example-sections"/>
						<code value="${document[n].section[n].subsection[n].typeCode}"/>
						<display value="${document[n].section[n].subsection[n].typeDisplay}"/>
					</coding>
				</code>
		<text>
			<status value="additional"/>
			<div xmlns="http://www.w3.org/1999/xhtml">
		    <p class="MsoNormal"></p><p class="MsoNormal"></p>
			</div>
		</text>
		
    	    
		
</section>
			    
    	    

			    
		               
<section>
			<title value="3.       VERFALLDATUM"/>
				<code>
					<coding>
						<system value="http://spor.ema.europa.eu/v1/example-sections"/>
						<code value="${document[n].section[n].subsection[n].typeCode}"/>
						<display value="${document[n].section[n].subsection[n].typeDisplay}"/>
					</coding>
				</code>
		<text>
			<status value="additional"/>
			<div xmlns="http://www.w3.org/1999/xhtml">
		    <p class="MsoNormal"></p><p class="MsoNormal"><span lang="DE">verw. bis</span></p><p class="MsoNormal"></p><p class="MsoNormal"></p><div style="border:solid windowtext 1.0pt;padding:1.0pt 4.0pt 1.0pt 4.0pt"> <p class="MsoNormal" style="margin-left:28.35pt;text-indent:-28.35pt;border:none; padding:0in"><b><span lang="DE">4.       DATUM DER REKONSTITUTION</span></b></p> </div><p class="MsoNormal"></p><p class="MsoNormal"><span lang="DE">Datum:</span></p><p class="MsoNormal"></p><p class="MsoNormal"></p>
			</div>
		</text>
		
    	    
		
</section>
			    
    	    

			    
		               
<section>
			<title value="5.       CHARGENBEZEICHNUNG"/>
				<code>
					<coding>
						<system value="http://spor.ema.europa.eu/v1/example-sections"/>
						<code value="${document[n].section[n].subsection[n].typeCode}"/>
						<display value="${document[n].section[n].subsection[n].typeDisplay}"/>
					</coding>
				</code>
		<text>
			<status value="additional"/>
			<div xmlns="http://www.w3.org/1999/xhtml">
		    <p class="MsoNormal"></p><p class="MsoNormal"><span lang="DE">Ch.‑B.</span></p><p class="MsoNormal"></p><p class="MsoNormal"></p>
			</div>
		</text>
		
    	    
		
</section>
			    
    	    

			    
		               
<section>
			<title value="6.       INHALT NACH GEWICHT, VOLUMEN ODER EINHEITEN"/>
				<code>
					<coding>
						<system value="http://spor.ema.europa.eu/v1/example-sections"/>
						<code value="${document[n].section[n].subsection[n].typeCode}"/>
						<display value="${document[n].section[n].subsection[n].typeDisplay}"/>
					</coding>
				</code>
		<text>
			<status value="additional"/>
			<div xmlns="http://www.w3.org/1999/xhtml">
		    <p class="MsoNormal"></p><p class="MsoNormal"><span lang="DE">600 I.E./Durchstechflasche</span></p><p class="MsoNormal"></p><p class="MsoNormal"></p>
			</div>
		</text>
		
    	    
		
</section>
			    
    	    

			    
		               
<section>
			<title value="7.       WEITERE ANGABEN"/>
				<code>
					<coding>
						<system value="http://spor.ema.europa.eu/v1/example-sections"/>
						<code value="${document[n].section[n].subsection[n].typeCode}"/>
						<display value="${document[n].section[n].subsection[n].typeDisplay}"/>
					</coding>
				</code>
		<text>
			<status value="additional"/>
			<div xmlns="http://www.w3.org/1999/xhtml">
		    <p class="MsoNormal"></p><p class="MsoNormal"></p><span lang="DE" style='font-size:11.0pt;font-family:"Times New Roman",serif'><br clear="all" style="page-break-before:always"/> </span><br clear="all" style="page-break-before:always"/>
			</div>
		</text>
		
    	    
		
</section>
			    
    	    
		
</section>
			    
    	    
				
			    
						
		               
<section>
			<title value="MINDESTANGABEN AUF KLEINEN BEHÄLTNISSEN"/>
				<code>
					<coding>
						<system value="http://spor.ema.europa.eu/v1/example-sections"/>
						<code value="${document[n].section[n].subsection[n].typeCode}"/>
						<display value="${document[n].section[n].subsection[n].typeDisplay}"/>
					</coding>
				</code>
		<text>
			<status value="additional"/>
			<div xmlns="http://www.w3.org/1999/xhtml">
		    <div style="border:solid windowtext 1.0pt;padding:1.0pt 4.0pt 1.0pt 4.0pt"> <p class="MsoNormal" style="border:none;padding:0in"></p> <p class="MsoNormal" style="border:none;padding:0in"><b><span lang="DE">GONAL‑F 450 I.E./0,75 ML, ETIKETT DER DURCHSTECHFLASCHE</span></b></p> </div><p class="MsoNormal"></p><p class="MsoNormal"></p>
			</div>
		</text>
		
    	    

			    
		               
<section>
			<title value="1.       BEZEICHNUNG DES ARZNEIMITTELS SOWIE ART(EN) DER ANWENDUNG"/>
				<code>
					<coding>
						<system value="http://spor.ema.europa.eu/v1/example-sections"/>
						<code value="${document[n].section[n].subsection[n].typeCode}"/>
						<display value="${document[n].section[n].subsection[n].typeDisplay}"/>
					</coding>
				</code>
		<text>
			<status value="additional"/>
			<div xmlns="http://www.w3.org/1999/xhtml">
		    <p class="MsoNormal"></p><p class="MsoNormal"><span lang="DE">GONAL‑f 450 I.E./0,75 ml Pulver zur Herstellung einer Injektionslösung</span></p><p class="MsoNormal"><span lang="DE">Follitropin alfa</span></p><p class="MsoNormal"><span lang="DE">s.c.</span></p><p class="MsoNormal"></p><p class="MsoNormal"></p>
			</div>
		</text>
		
    	    
		
</section>
			    
    	    

			    
		               
<section>
			<title value="2.       HINWEISE ZUR ANWENDUNG"/>
				<code>
					<coding>
						<system value="http://spor.ema.europa.eu/v1/example-sections"/>
						<code value="${document[n].section[n].subsection[n].typeCode}"/>
						<display value="${document[n].section[n].subsection[n].typeDisplay}"/>
					</coding>
				</code>
		<text>
			<status value="additional"/>
			<div xmlns="http://www.w3.org/1999/xhtml">
		    <p class="MsoNormal"></p><p class="MsoNormal"></p>
			</div>
		</text>
		
    	    
		
</section>
			    
    	    

			    
		               
<section>
			<title value="3.       VERFALLDATUM"/>
				<code>
					<coding>
						<system value="http://spor.ema.europa.eu/v1/example-sections"/>
						<code value="${document[n].section[n].subsection[n].typeCode}"/>
						<display value="${document[n].section[n].subsection[n].typeDisplay}"/>
					</coding>
				</code>
		<text>
			<status value="additional"/>
			<div xmlns="http://www.w3.org/1999/xhtml">
		    <p class="MsoNormal"></p><p class="MsoNormal"><span lang="DE">verw. bis</span></p><p class="MsoNormal"></p><p class="MsoNormal"></p><div style="border:solid windowtext 1.0pt;padding:1.0pt 4.0pt 1.0pt 4.0pt"> <p class="MsoNormal" style="margin-left:28.35pt;text-indent:-28.35pt;border:none; padding:0in"><b><span lang="DE">4.       DATUM DER REKONSTITUTION</span></b></p> </div><p class="MsoNormal"></p><p class="MsoNormal"><span lang="DE">Datum:</span></p><p class="MsoNormal"></p><p class="MsoNormal"></p>
			</div>
		</text>
		
    	    
		
</section>
			    
    	    

			    
		               
<section>
			<title value="5.       CHARGENBEZEICHNUNG"/>
				<code>
					<coding>
						<system value="http://spor.ema.europa.eu/v1/example-sections"/>
						<code value="${document[n].section[n].subsection[n].typeCode}"/>
						<display value="${document[n].section[n].subsection[n].typeDisplay}"/>
					</coding>
				</code>
		<text>
			<status value="additional"/>
			<div xmlns="http://www.w3.org/1999/xhtml">
		    <p class="MsoNormal"></p><p class="MsoNormal"><span lang="DE">Ch.‑B.</span></p><p class="MsoNormal"></p><p class="MsoNormal"></p>
			</div>
		</text>
		
    	    
		
</section>
			    
    	    

			    
		               
<section>
			<title value="6.       INHALT NACH GEWICHT, VOLUMEN ODER EINHEITEN"/>
				<code>
					<coding>
						<system value="http://spor.ema.europa.eu/v1/example-sections"/>
						<code value="${document[n].section[n].subsection[n].typeCode}"/>
						<display value="${document[n].section[n].subsection[n].typeDisplay}"/>
					</coding>
				</code>
		<text>
			<status value="additional"/>
			<div xmlns="http://www.w3.org/1999/xhtml">
		    <p class="MsoNormal"></p><p class="MsoNormal"><span lang="DE">600 I.E./Durchstechflasche</span></p><p class="MsoNormal"></p><p class="MsoNormal"></p>
			</div>
		</text>
		
    	    
		
</section>
			    
    	    

			    
		               
<section>
			<title value="7.       WEITERE ANGABEN"/>
				<code>
					<coding>
						<system value="http://spor.ema.europa.eu/v1/example-sections"/>
						<code value="${document[n].section[n].subsection[n].typeCode}"/>
						<display value="${document[n].section[n].subsection[n].typeDisplay}"/>
					</coding>
				</code>
		<text>
			<status value="additional"/>
			<div xmlns="http://www.w3.org/1999/xhtml">
		    <p class="MsoNormal"></p><p class="MsoNormal"></p><span lang="DE" style='font-size:11.0pt;font-family:"Times New Roman",serif'><br clear="all" style="page-break-before:always"/> </span><br clear="all" style="page-break-before:always"/>
			</div>
		</text>
		
    	    
		
</section>
			    
    	    

			    
		               
<section>
			<title value="1.       BEZEICHNUNG DES ARZNEIMITTELS SOWIE ART(EN) DER ANWENDUNG"/>
				<code>
					<coding>
						<system value="http://spor.ema.europa.eu/v1/example-sections"/>
						<code value="${document[n].section[n].subsection[n].typeCode}"/>
						<display value="${document[n].section[n].subsection[n].typeDisplay}"/>
					</coding>
				</code>
		<text>
			<status value="additional"/>
			<div xmlns="http://www.w3.org/1999/xhtml">
		    <p class="MsoNormal"></p><p class="MsoNormal"><span lang="DE">GONAL‑f 450 I.E./0,75 ml Pulver zur Herstellung einer Injektionslösung</span></p><p class="MsoNormal"><span lang="DE">Follitropin alfa</span></p><p class="MsoNormal"><span lang="DE">s.c.</span></p><p class="MsoNormal"></p><p class="MsoNormal"></p>
			</div>
		</text>
		
    	    
		
</section>
			    
    	    

			    
		               
<section>
			<title value="2.       HINWEISE ZUR ANWENDUNG"/>
				<code>
					<coding>
						<system value="http://spor.ema.europa.eu/v1/example-sections"/>
						<code value="${document[n].section[n].subsection[n].typeCode}"/>
						<display value="${document[n].section[n].subsection[n].typeDisplay}"/>
					</coding>
				</code>
		<text>
			<status value="additional"/>
			<div xmlns="http://www.w3.org/1999/xhtml">
		    <p class="MsoNormal"></p><p class="MsoNormal"></p>
			</div>
		</text>
		
    	    
		
</section>
			    
    	    

			    
		               
<section>
			<title value="3.       VERFALLDATUM"/>
				<code>
					<coding>
						<system value="http://spor.ema.europa.eu/v1/example-sections"/>
						<code value="${document[n].section[n].subsection[n].typeCode}"/>
						<display value="${document[n].section[n].subsection[n].typeDisplay}"/>
					</coding>
				</code>
		<text>
			<status value="additional"/>
			<div xmlns="http://www.w3.org/1999/xhtml">
		    <p class="MsoNormal"></p><p class="MsoNormal"><span lang="DE">verw. bis</span></p><p class="MsoNormal"></p><p class="MsoNormal"></p><div style="border:solid windowtext 1.0pt;padding:1.0pt 4.0pt 1.0pt 4.0pt"> <p class="MsoNormal" style="margin-left:28.35pt;text-indent:-28.35pt;border:none; padding:0in"><b><span lang="DE">4.       DATUM DER REKONSTITUTION</span></b></p> </div><p class="MsoNormal"></p><p class="MsoNormal"><span lang="DE">Datum:</span></p><p class="MsoNormal"></p><p class="MsoNormal"></p>
			</div>
		</text>
		
    	    
		
</section>
			    
    	    

			    
		               
<section>
			<title value="5.       CHARGENBEZEICHNUNG"/>
				<code>
					<coding>
						<system value="http://spor.ema.europa.eu/v1/example-sections"/>
						<code value="${document[n].section[n].subsection[n].typeCode}"/>
						<display value="${document[n].section[n].subsection[n].typeDisplay}"/>
					</coding>
				</code>
		<text>
			<status value="additional"/>
			<div xmlns="http://www.w3.org/1999/xhtml">
		    <p class="MsoNormal"></p><p class="MsoNormal"><span lang="DE">Ch.‑B.</span></p><p class="MsoNormal"></p><p class="MsoNormal"></p>
			</div>
		</text>
		
    	    
		
</section>
			    
    	    

			    
		               
<section>
			<title value="6.       INHALT NACH GEWICHT, VOLUMEN ODER EINHEITEN"/>
				<code>
					<coding>
						<system value="http://spor.ema.europa.eu/v1/example-sections"/>
						<code value="${document[n].section[n].subsection[n].typeCode}"/>
						<display value="${document[n].section[n].subsection[n].typeDisplay}"/>
					</coding>
				</code>
		<text>
			<status value="additional"/>
			<div xmlns="http://www.w3.org/1999/xhtml">
		    <p class="MsoNormal"></p><p class="MsoNormal"><span lang="DE">600 I.E./Durchstechflasche</span></p><p class="MsoNormal"></p><p class="MsoNormal"></p>
			</div>
		</text>
		
    	    
		
</section>
			    
    	    

			    
		               
<section>
			<title value="7.       WEITERE ANGABEN"/>
				<code>
					<coding>
						<system value="http://spor.ema.europa.eu/v1/example-sections"/>
						<code value="${document[n].section[n].subsection[n].typeCode}"/>
						<display value="${document[n].section[n].subsection[n].typeDisplay}"/>
					</coding>
				</code>
		<text>
			<status value="additional"/>
			<div xmlns="http://www.w3.org/1999/xhtml">
		    <p class="MsoNormal"></p><p class="MsoNormal"></p><span lang="DE" style='font-size:11.0pt;font-family:"Times New Roman",serif'><br clear="all" style="page-break-before:always"/> </span><br clear="all" style="page-break-before:always"/>
			</div>
		</text>
		
    	    
		
</section>
			    
    	    
		
</section>
			    
    	    
		
	
		
		
    	    
				
			    
						
		               
<section>
			<title value="ANGABEN AUF DER ÄUSSEREN UMHÜLLUNG"/>
				<code>
					<coding>
						<system value="http://spor.ema.europa.eu/v1/example-sections"/>
						<code value="${document[n].section[n].subsection[n].typeCode}"/>
						<display value="${document[n].section[n].subsection[n].typeDisplay}"/>
					</coding>
				</code>
		<text>
			<status value="additional"/>
			<div xmlns="http://www.w3.org/1999/xhtml">
		    <div style="border:solid windowtext 1.0pt;padding:1.0pt 4.0pt 1.0pt 4.0pt"> <p class="MsoNormal" style="border:none;padding:0in"></p> <p class="MsoNormal" style="border:none;padding:0in"><b><span lang="DE">GONAL‑f 150 I.E./0,25 ML PEN, SCHACHTEL MIT 1 FERTIGPEN</span></b></p> </div><p class="MsoNormal" style="margin-left:-7.1pt;text-indent:7.1pt"></p><p class="MsoNormal" style="margin-left:-7.1pt;text-indent:7.1pt"></p>
			</div>
		</text>
		
    	    

			    
		               
<section>
			<title value="1.       BEZEICHNUNG DES ARZNEIMITTELS"/>
				<code>
					<coding>
						<system value="http://spor.ema.europa.eu/v1/example-sections"/>
						<code value="${document[n].section[n].subsection[n].typeCode}"/>
						<display value="${document[n].section[n].subsection[n].typeDisplay}"/>
					</coding>
				</code>
		<text>
			<status value="additional"/>
			<div xmlns="http://www.w3.org/1999/xhtml">
		    <p class="MsoNormal"></p><p class="MsoNormal"><span lang="DE">GONAL‑f 150 I.E./0,25 ml Injektionslösung</span><span lang="DE"> im Fertigpen</span></p><p class="MsoNormal"><span lang="DE">Follitropin alfa</span></p><p class="MsoNormal"><u><span lang="DE"></span></u></p><p class="MsoNormal"><u><span lang="DE"></span></u></p>
			</div>
		</text>
		
    	    
		
</section>
			    
    	    

			    
		               
<section>
			<title value="2.       WIRKSTOFF(E)"/>
				<code>
					<coding>
						<system value="http://spor.ema.europa.eu/v1/example-sections"/>
						<code value="${document[n].section[n].subsection[n].typeCode}"/>
						<display value="${document[n].section[n].subsection[n].typeDisplay}"/>
					</coding>
				</code>
		<text>
			<status value="additional"/>
			<div xmlns="http://www.w3.org/1999/xhtml">
		    <p class="MsoNormal"></p><p class="MsoNormal"><span lang="DE">Ein Mehrfachdosis‑Fertigpen enthält 150 I.E. Follitropin alfa, entsprechend 11 Mikrogramm in 0,25 ml.</span></p><p class="MsoNormal"><span lang="DE">Follitropin alfa, 600 I.E./ml (entspricht 44 Mikrogramm/ml).</span></p><p class="MsoNormal"></p><p class="MsoNormal"></p>
			</div>
		</text>
		
    	    
		
</section>
			    
    	    

			    
		               
<section>
			<title value="3.       SONSTIGE BESTANDTEILE"/>
				<code>
					<coding>
						<system value="http://spor.ema.europa.eu/v1/example-sections"/>
						<code value="${document[n].section[n].subsection[n].typeCode}"/>
						<display value="${document[n].section[n].subsection[n].typeDisplay}"/>
					</coding>
				</code>
		<text>
			<status value="additional"/>
			<div xmlns="http://www.w3.org/1999/xhtml">
		    <p class="MsoNormal"></p><p class="MsoNormal"><span lang="DE">Sonstige Bestandteile: Poloxamer 188, Sucrose, Methionin, Natriumdihydrogenphosphat‑1H<sub>2</sub>O, Natriummonohydrogenphosphat‑Dihydrat, m‑Cresol, konzentrierte Phosphorsäure, Natriumhydroxid und Wasser für Injektionszwecke.</span></p><p class="MsoNormal"></p><p class="MsoNormal"></p>
			</div>
		</text>
		
    	    
		
</section>
			    
    	    

			    
		               
<section>
			<title value="4.       DARREICHUNGSFORM UND INHALT"/>
				<code>
					<coding>
						<system value="http://spor.ema.europa.eu/v1/example-sections"/>
						<code value="${document[n].section[n].subsection[n].typeCode}"/>
						<display value="${document[n].section[n].subsection[n].typeDisplay}"/>
					</coding>
				</code>
		<text>
			<status value="additional"/>
			<div xmlns="http://www.w3.org/1999/xhtml">
		    <p class="MsoNormal"></p><p class="MsoNormal"><span lang="DE">Injektionslösung im Fertigpen.</span></p><p class="MsoNormal"><span lang="DE">1 Mehrfachdosis‑Fertigpen</span></p><p class="MsoNormal"><span lang="DE">4 Injektionsnadeln.</span></p><p class="MsoNormal"></p><p class="MsoNormal"></p>
			</div>
		</text>
		
    	    
		
</section>
			    
    	    

			    
		               
<section>
			<title value="5.       HINWEISE ZUR UND ART(EN) DER ANWENDUNG"/>
				<code>
					<coding>
						<system value="http://spor.ema.europa.eu/v1/example-sections"/>
						<code value="${document[n].section[n].subsection[n].typeCode}"/>
						<display value="${document[n].section[n].subsection[n].typeDisplay}"/>
					</coding>
				</code>
		<text>
			<status value="additional"/>
			<div xmlns="http://www.w3.org/1999/xhtml">
		    <p class="MsoNormal"></p><p class="MsoNormal"><span lang="DE">Packungsbeilage beachten.</span></p><p class="MsoNormal"><span lang="DE">Subkutane Anwendung.</span></p><p class="MsoNormal"></p><p class="MsoNormal"></p>
			</div>
		</text>
		
    	    
		
</section>
			    
    	    

			    
		               
<section>
			<title value="6.       WARNHINWEIS, DASS DAS ARZNEIMITTEL FÜR KINDER UNZUGÄNGLICH AUFZUBEWAHREN IST"/>
				<code>
					<coding>
						<system value="http://spor.ema.europa.eu/v1/example-sections"/>
						<code value="${document[n].section[n].subsection[n].typeCode}"/>
						<display value="${document[n].section[n].subsection[n].typeDisplay}"/>
					</coding>
				</code>
		<text>
			<status value="additional"/>
			<div xmlns="http://www.w3.org/1999/xhtml">
		    <p class="MsoNormal"></p><p class="MsoNormal"><span lang="DE">Arzneimittel für Kinder unzugänglich aufbewahren.</span></p><p class="MsoNormal"></p><p class="MsoNormal"></p>
			</div>
		</text>
		
    	    
		
</section>
			    
    	    

			    
		               
<section>
			<title value="7.       WEITERE WARNHINWEISE, FALLS ERFORDERLICH"/>
				<code>
					<coding>
						<system value="http://spor.ema.europa.eu/v1/example-sections"/>
						<code value="${document[n].section[n].subsection[n].typeCode}"/>
						<display value="${document[n].section[n].subsection[n].typeDisplay}"/>
					</coding>
				</code>
		<text>
			<status value="additional"/>
			<div xmlns="http://www.w3.org/1999/xhtml">
		    <p class="MsoNormal"></p><p class="MsoNormal"></p>
			</div>
		</text>
		
    	    
		
</section>
			    
    	    

			    
		               
<section>
			<title value="8.       VERFALLDATUM"/>
				<code>
					<coding>
						<system value="http://spor.ema.europa.eu/v1/example-sections"/>
						<code value="${document[n].section[n].subsection[n].typeCode}"/>
						<display value="${document[n].section[n].subsection[n].typeDisplay}"/>
					</coding>
				</code>
		<text>
			<status value="additional"/>
			<div xmlns="http://www.w3.org/1999/xhtml">
		    <p class="MsoNormal" style="page-break-after:avoid"></p><p class="MsoNormal"><span lang="DE">verwendbar bis</span></p><p class="MsoNormal"></p><p class="MsoNormal"></p>
			</div>
		</text>
		
    	    
		
</section>
			    
    	    

			    
		               
<section>
			<title value="9.       BESONDERE VORSICHTSMASSNAHMEN FÜR DIE AUFBEWAHRUNG"/>
				<code>
					<coding>
						<system value="http://spor.ema.europa.eu/v1/example-sections"/>
						<code value="${document[n].section[n].subsection[n].typeCode}"/>
						<display value="${document[n].section[n].subsection[n].typeDisplay}"/>
					</coding>
				</code>
		<text>
			<status value="additional"/>
			<div xmlns="http://www.w3.org/1999/xhtml">
		    <p class="MsoNormal" style="page-break-after:avoid"></p><p class="MsoNormal" style="page-break-after:avoid"><span lang="DE">Im Kühlschrank lagern. Nicht einfrieren.</span></p><p class="MsoNormal" style="page-break-after:avoid"><span lang="DE">In der Originalverpackung aufbewahren, um den Inhalt vor Licht zu schützen.</span></p><p class="MsoNormal" style="page-break-after:avoid"><span lang="DE">Innerhalb der Haltbarkeitsdauer kann das Arzneimittel bis zu 3 Monate lang bei Temperaturen bis zu 25 °C aufbewahrt werden, ohne gekühlt zu werden. Danach muss es verworfen werden.</span></p><p class="MsoNormal"><span lang="DE">Nach Anbruch kann das Arzneimittel maximal 28 Tage lang bei Temperaturen bis zu 25 °C aufbewahrt werden.</span></p><p class="MsoNormal"></p><p class="MsoNormal"></p>
			</div>
		</text>
		
    	    
		
</section>
			    
    	    

			    
		               
<section>
			<title value="10.     GEGEBENENFALLS BESONDERE VORSICHTSMASSNAHMEN FÜR DIE BESEITIGUNG VON NICHT VERWENDETEM ARZNEIMITTEL ODER DAVON STAMMENDEN ABFALLMATERIALIEN"/>
				<code>
					<coding>
						<system value="http://spor.ema.europa.eu/v1/example-sections"/>
						<code value="${document[n].section[n].subsection[n].typeCode}"/>
						<display value="${document[n].section[n].subsection[n].typeDisplay}"/>
					</coding>
				</code>
		<text>
			<status value="additional"/>
			<div xmlns="http://www.w3.org/1999/xhtml">
		    <p class="MsoNormal"></p><p class="MsoNormal"><span lang="DE">Nicht verwendetes Arzneimittel oder Abfallmaterial ist entsprechend den nationalen Anforderungen zu beseitigen.</span></p><p class="MsoNormal"></p><p class="MsoNormal"></p>
			</div>
		</text>
		
    	    
		
</section>
			    
    	    

			    
		               
<section>
			<title value="11.     NAME UND ANSCHRIFT DES PHARMAZEUTISCHEN UNTERNEHMERS"/>
				<code>
					<coding>
						<system value="http://spor.ema.europa.eu/v1/example-sections"/>
						<code value="${document[n].section[n].subsection[n].typeCode}"/>
						<display value="${document[n].section[n].subsection[n].typeDisplay}"/>
					</coding>
				</code>
		<text>
			<status value="additional"/>
			<div xmlns="http://www.w3.org/1999/xhtml">
		    <p class="MsoNormal" style="margin-left:28.35pt;text-indent:-28.35pt"></p><p class="MsoListParagraph" style="margin:0in;margin-bottom:.0001pt;line-height: normal;page-break-after:avoid"><span lang="DE" style="font-size:11.0pt">Merck Europe B.V.</span></p><p class="MsoListParagraph" style="margin:0in;margin-bottom:.0001pt;line-height: normal;page-break-after:avoid"><span lang="DE" style="font-size:11.0pt">Gustav Mahlerplein 102</span></p><p class="MsoListParagraph" style="margin:0in;margin-bottom:.0001pt;line-height: normal;page-break-after:avoid"><span lang="DE" style="font-size:11.0pt">1082 MA Amsterdam</span></p><p class="MsoNormal"><span lang="DE">Niederlande</span></p><p class="MsoNormal" style="margin-left:28.35pt;text-indent:-28.35pt"></p><p class="MsoNormal" style="margin-left:28.35pt;text-indent:-28.35pt"></p>
			</div>
		</text>
		
    	    
		
</section>
			    
    	    

			    
		               
<section>
			<title value="12.     ZULASSUNGSNUMMER(N)"/>
				<code>
					<coding>
						<system value="http://spor.ema.europa.eu/v1/example-sections"/>
						<code value="${document[n].section[n].subsection[n].typeCode}"/>
						<display value="${document[n].section[n].subsection[n].typeDisplay}"/>
					</coding>
				</code>
		<text>
			<status value="additional"/>
			<div xmlns="http://www.w3.org/1999/xhtml">
		    <p class="MsoNormal" style="margin-left:28.35pt;text-indent:-28.35pt"></p><p class="MsoNormal"><span lang="DE">EU/1/95/001/000   </span><span lang="DE" style="color:black;background:#D9D9D9">Injektionslösung im Fertigpen</span><span lang="DE"><br/> </span><span lang="DE" style="color:black;background: #D9D9D9">4 Injektionsnadeln</span></p><p class="MsoNormal"></p><p class="MsoNormal"></p>
			</div>
		</text>
		
    	    
		
</section>
			    
    	    

			    
		               
<section>
			<title value="13.     CHARGENBEZEICHNUNG"/>
				<code>
					<coding>
						<system value="http://spor.ema.europa.eu/v1/example-sections"/>
						<code value="${document[n].section[n].subsection[n].typeCode}"/>
						<display value="${document[n].section[n].subsection[n].typeDisplay}"/>
					</coding>
				</code>
		<text>
			<status value="additional"/>
			<div xmlns="http://www.w3.org/1999/xhtml">
		    <p class="MsoNormal"></p><p class="MsoNormal"><span lang="DE">Ch.‑B.</span></p><p class="MsoNormal"></p><p class="MsoNormal"></p>
			</div>
		</text>
		
    	    
		
</section>
			    
    	    

			    
		               
<section>
			<title value="14.     VERKAUFSABGRENZUNG"/>
				<code>
					<coding>
						<system value="http://spor.ema.europa.eu/v1/example-sections"/>
						<code value="${document[n].section[n].subsection[n].typeCode}"/>
						<display value="${document[n].section[n].subsection[n].typeDisplay}"/>
					</coding>
				</code>
		<text>
			<status value="additional"/>
			<div xmlns="http://www.w3.org/1999/xhtml">
		    <p class="MsoNormal"></p><p class="MsoNormal"></p>
			</div>
		</text>
		
    	    
		
</section>
			    
    	    

			    
		               
<section>
			<title value="15.     HINWEISE FÜR DEN GEBRAUCH"/>
				<code>
					<coding>
						<system value="http://spor.ema.europa.eu/v1/example-sections"/>
						<code value="${document[n].section[n].subsection[n].typeCode}"/>
						<display value="${document[n].section[n].subsection[n].typeDisplay}"/>
					</coding>
				</code>
		<text>
			<status value="additional"/>
			<div xmlns="http://www.w3.org/1999/xhtml">
		    <p class="MsoNormal"></p><p class="MsoNormal"></p><div style="border:solid windowtext 1.0pt;padding:1.0pt 4.0pt 1.0pt 4.0pt"> <p class="MsoNormal" style="margin-left:28.35pt;text-indent:-28.35pt;border:none; padding:0in"><b><span lang="DE" style="text-transform:uppercase">16.     ANGABEN in BLINDENSCHRIFT</span></b></p> </div><p class="MsoNormal"></p><p class="MsoNormal"><span lang="DE">gonal‑f 150 i.e./0,25 ml</span></p><p class="MsoNormal"></p><p class="MsoNormal"></p>
			</div>
		</text>
		
    	    
		
</section>
			    
    	    

			    
		               
<section>
			<title value="17.     INDIVIDUELLES ERKENNUNGSMERKMAL – 2D-BARCODE"/>
				<code>
					<coding>
						<system value="http://spor.ema.europa.eu/v1/example-sections"/>
						<code value="${document[n].section[n].subsection[n].typeCode}"/>
						<display value="${document[n].section[n].subsection[n].typeDisplay}"/>
					</coding>
				</code>
		<text>
			<status value="additional"/>
			<div xmlns="http://www.w3.org/1999/xhtml">
		    <p class="MsoNormal" style="page-break-after:avoid"></p><p class="MsoNormal"><span lang="DE" style="color:black;background:#D9D9D9">2D-Barcode mit individuellem Erkennungsmerkmal.</span></p><p class="MsoNormal"></p><p class="MsoNormal"></p>
			</div>
		</text>
		
    	    
		
</section>
			    
    	    

			    
		               
<section>
			<title value="18.     INDIVIDUELLES ERKENNUNGSMERKMAL – VOM MENSCHEN LESBARES FORMAT"/>
				<code>
					<coding>
						<system value="http://spor.ema.europa.eu/v1/example-sections"/>
						<code value="${document[n].section[n].subsection[n].typeCode}"/>
						<display value="${document[n].section[n].subsection[n].typeDisplay}"/>
					</coding>
				</code>
		<text>
			<status value="additional"/>
			<div xmlns="http://www.w3.org/1999/xhtml">
		    <p class="MsoNormal" style="page-break-after:avoid"></p><p class="MsoNormal"><span lang="DE">PC</span></p><p class="MsoNormal"><span lang="DE">SN</span></p><p class="MsoNormal"><span lang="DE">NN</span></p><p class="MsoNormal"></p><span lang="DE" style='font-size:11.0pt;font-family:"Times New Roman",serif'><br clear="all" style="page-break-before:always"/> </span><br clear="all" style="page-break-before:always"/>
			</div>
		</text>
		
    	    
		
</section>
			    
    	    
		
</section>
			    
    	    
		
	
		
		
    	    
				
			    
						
		               
<section>
			<title value="ANGABEN AUF DEM PEN"/>
				<code>
					<coding>
						<system value="http://spor.ema.europa.eu/v1/example-sections"/>
						<code value="${document[n].section[n].subsection[n].typeCode}"/>
						<display value="${document[n].section[n].subsection[n].typeDisplay}"/>
					</coding>
				</code>
		<text>
			<status value="additional"/>
			<div xmlns="http://www.w3.org/1999/xhtml">
		    <div style="border:solid windowtext 1.0pt;padding:1.0pt 4.0pt 1.0pt 4.0pt"> <p class="MsoNormal" style="border:none;padding:0in"></p> <p class="MsoNormal" style="border:none;padding:0in"><b><span lang="DE">GONAL-f 150 I.E./0,25 ML PEN, AUFKLEBER</span></b></p> </div><p class="MsoNormal"></p><p class="MsoNormal"><i><span lang="DE" style="color:black;background:#D9D9D9">Es wird ein Aufkleber mitgeliefert, auf dem der Patient den Tag der ersten Anwendung notieren kann.</span></i></p><p class="MsoNormal"></p><p class="MsoNormal"><span lang="EN-GB"><img border="0" height="169" src="#image0" width="203"/></span></p><span lang="DE" style='font-size:11.0pt;font-family:"Times New Roman",serif'><br clear="all" style="page-break-before:always"/> </span><br clear="all" style="page-break-before:always"/>
			</div>
		</text>
		
    	    
		
</section>
			    
    	    
				
			    
						
		               
<section>
			<title value="MINDESTANGABEN AUF KLEINEN BEHÄLTNISSEN"/>
				<code>
					<coding>
						<system value="http://spor.ema.europa.eu/v1/example-sections"/>
						<code value="${document[n].section[n].subsection[n].typeCode}"/>
						<display value="${document[n].section[n].subsection[n].typeDisplay}"/>
					</coding>
				</code>
		<text>
			<status value="additional"/>
			<div xmlns="http://www.w3.org/1999/xhtml">
		    <div style="border:solid windowtext 1.0pt;padding:1.0pt 4.0pt 1.0pt 4.0pt"> <p class="MsoNormal" style="border:none;padding:0in"></p> <p class="MsoNormal" style="border:none;padding:0in"><b><span lang="DE">GONAL‑f 150 I.E./0,25 ML PEN, ETIKETT DES PENS</span></b></p> </div><p class="MsoNormal"></p><p class="MsoNormal"></p>
			</div>
		</text>
		
    	    

			    
		               
<section>
			<title value="1.       BEZEICHNUNG DES ARZNEIMITTELS SOWIE ART(EN) DER ANWENDUNG"/>
				<code>
					<coding>
						<system value="http://spor.ema.europa.eu/v1/example-sections"/>
						<code value="${document[n].section[n].subsection[n].typeCode}"/>
						<display value="${document[n].section[n].subsection[n].typeDisplay}"/>
					</coding>
				</code>
		<text>
			<status value="additional"/>
			<div xmlns="http://www.w3.org/1999/xhtml">
		    <p class="MsoNormal"></p><p class="MsoNormal"><span lang="DE">GONAL‑f 150 I.E./0,25 ml Injektionslösung im Fertigpen</span></p><p class="MsoNormal"><span lang="DE">Follitropin alfa</span></p><p class="MsoNormal"><span lang="DE">Subkutane Anwendung</span></p><p class="MsoNormal"></p><p class="MsoNormal"></p>
			</div>
		</text>
		
    	    
		
</section>
			    
    	    

			    
		               
<section>
			<title value="2.       HINWEISE ZUR ANWENDUNG"/>
				<code>
					<coding>
						<system value="http://spor.ema.europa.eu/v1/example-sections"/>
						<code value="${document[n].section[n].subsection[n].typeCode}"/>
						<display value="${document[n].section[n].subsection[n].typeDisplay}"/>
					</coding>
				</code>
		<text>
			<status value="additional"/>
			<div xmlns="http://www.w3.org/1999/xhtml">
		    <p class="MsoNormal"></p><p class="MsoNormal"></p>
			</div>
		</text>
		
    	    
		
</section>
			    
    	    

			    
		               
<section>
			<title value="3.       VERFALLDATUM"/>
				<code>
					<coding>
						<system value="http://spor.ema.europa.eu/v1/example-sections"/>
						<code value="${document[n].section[n].subsection[n].typeCode}"/>
						<display value="${document[n].section[n].subsection[n].typeDisplay}"/>
					</coding>
				</code>
		<text>
			<status value="additional"/>
			<div xmlns="http://www.w3.org/1999/xhtml">
		    <p class="MsoNormal"></p><p class="MsoNormal"><span lang="DE">verw. bis</span></p><p class="MsoNormal"><span lang="DE">Haltbarkeit nach erstmaliger Anwendung: 28 Tage</span></p><p class="MsoNormal"></p><p class="MsoNormal"></p>
			</div>
		</text>
		
    	    
		
</section>
			    
    	    

			    
		               
<section>
			<title value="4.       CHARGENBEZEICHNUNG"/>
				<code>
					<coding>
						<system value="http://spor.ema.europa.eu/v1/example-sections"/>
						<code value="${document[n].section[n].subsection[n].typeCode}"/>
						<display value="${document[n].section[n].subsection[n].typeDisplay}"/>
					</coding>
				</code>
		<text>
			<status value="additional"/>
			<div xmlns="http://www.w3.org/1999/xhtml">
		    <p class="MsoNormal"></p><p class="MsoNormal"><span lang="DE">Ch.‑B.</span></p><p class="MsoNormal"></p><p class="MsoNormal"></p>
			</div>
		</text>
		
    	    
		
</section>
			    
    	    

			    
		               
<section>
			<title value="5.       INHALT NACH GEWICHT, VOLUMEN ODER EINHEITEN"/>
				<code>
					<coding>
						<system value="http://spor.ema.europa.eu/v1/example-sections"/>
						<code value="${document[n].section[n].subsection[n].typeCode}"/>
						<display value="${document[n].section[n].subsection[n].typeDisplay}"/>
					</coding>
				</code>
		<text>
			<status value="additional"/>
			<div xmlns="http://www.w3.org/1999/xhtml">
		    <p class="MsoNormal"></p><p class="MsoNormal"><span lang="DE" style="color:black;background:#BFBFBF">150 I.E./0,25 ml</span></p><p class="MsoNormal"></p><p class="MsoNormal"></p>
			</div>
		</text>
		
    	    
		
</section>
			    
    	    

			    
		               
<section>
			<title value="6.       WEITERE ANGABEN"/>
				<code>
					<coding>
						<system value="http://spor.ema.europa.eu/v1/example-sections"/>
						<code value="${document[n].section[n].subsection[n].typeCode}"/>
						<display value="${document[n].section[n].subsection[n].typeDisplay}"/>
					</coding>
				</code>
		<text>
			<status value="additional"/>
			<div xmlns="http://www.w3.org/1999/xhtml">
		    <p class="MsoNormal"></p><p class="MsoNormal"></p><span lang="DE" style='font-size:11.0pt;font-family:"Times New Roman",serif'><br clear="all" style="page-break-before:always"/> </span><br clear="all" style="page-break-before:always"/>
			</div>
		</text>
		
    	    
		
</section>
			    
    	    
		
</section>
			    
    	    
		
	
		
		
    	    
				
			    
						
		               
<section>
			<title value="ANGABEN AUF DER ÄUSSEREN UMHÜLLUNG"/>
				<code>
					<coding>
						<system value="http://spor.ema.europa.eu/v1/example-sections"/>
						<code value="${document[n].section[n].subsection[n].typeCode}"/>
						<display value="${document[n].section[n].subsection[n].typeDisplay}"/>
					</coding>
				</code>
		<text>
			<status value="additional"/>
			<div xmlns="http://www.w3.org/1999/xhtml">
		    <div style="border:solid windowtext 1.0pt;padding:1.0pt 4.0pt 1.0pt 4.0pt"> <p class="MsoNormal" style="border:none;padding:0in"></p> <p class="MsoNormal" style="border:none;padding:0in"><b><span lang="DE">GONAL‑f 300 I.E./0,5 ML PEN, SCHACHTEL MIT 1 FERTIGPEN</span></b></p> </div><p class="MsoNormal" style="margin-left:-7.1pt;text-indent:7.1pt"></p><p class="MsoNormal" style="margin-left:-7.1pt;text-indent:7.1pt"></p>
			</div>
		</text>
		
    	    

			    
		               
<section>
			<title value="1.       BEZEICHNUNG DES ARZNEIMITTELS"/>
				<code>
					<coding>
						<system value="http://spor.ema.europa.eu/v1/example-sections"/>
						<code value="${document[n].section[n].subsection[n].typeCode}"/>
						<display value="${document[n].section[n].subsection[n].typeDisplay}"/>
					</coding>
				</code>
		<text>
			<status value="additional"/>
			<div xmlns="http://www.w3.org/1999/xhtml">
		    <p class="MsoNormal"></p><p class="MsoNormal"><span lang="DE">GONAL‑f 300 I.E./0,5 ml Injektionslösung</span><span lang="DE"> im Fertigpen</span></p><p class="MsoNormal"><span lang="DE">Follitropin alfa</span></p><p class="MsoNormal"><u><span lang="DE"></span></u></p><p class="MsoNormal"><u><span lang="DE"></span></u></p>
			</div>
		</text>
		
    	    
		
</section>
			    
    	    

			    
		               
<section>
			<title value="2.       WIRKSTOFF(E)"/>
				<code>
					<coding>
						<system value="http://spor.ema.europa.eu/v1/example-sections"/>
						<code value="${document[n].section[n].subsection[n].typeCode}"/>
						<display value="${document[n].section[n].subsection[n].typeDisplay}"/>
					</coding>
				</code>
		<text>
			<status value="additional"/>
			<div xmlns="http://www.w3.org/1999/xhtml">
		    <p class="MsoNormal"></p><p class="MsoNormal"><span lang="DE">Ein Mehrfachdosis‑Fertigpen enthält 300 I.E. Follitropin alfa, entsprechend 22 Mikrogramm in 0,5 ml.</span></p><p class="MsoNormal"><span lang="DE">Follitropin alfa, 600 I.E./ml (entspricht 44 Mikrogramm/ml).</span></p><p class="MsoNormal"></p><p class="MsoNormal"></p>
			</div>
		</text>
		
    	    
		
</section>
			    
    	    

			    
		               
<section>
			<title value="3.       SONSTIGE BESTANDTEILE"/>
				<code>
					<coding>
						<system value="http://spor.ema.europa.eu/v1/example-sections"/>
						<code value="${document[n].section[n].subsection[n].typeCode}"/>
						<display value="${document[n].section[n].subsection[n].typeDisplay}"/>
					</coding>
				</code>
		<text>
			<status value="additional"/>
			<div xmlns="http://www.w3.org/1999/xhtml">
		    <p class="MsoNormal"></p><p class="MsoNormal"><span lang="DE">Sonstige Bestandteile: Poloxamer 188, Sucrose, Methionin, Natriumdihydrogenphosphat‑1H<sub>2</sub>O, Natriummonohydrogenphosphat‑Dihydrat, m‑Cresol, konzentrierte Phosphorsäure, Natriumhydroxid und Wasser für Injektionszwecke.</span></p><p class="MsoNormal"></p><p class="MsoNormal"></p>
			</div>
		</text>
		
    	    
		
</section>
			    
    	    

			    
		               
<section>
			<title value="4.       DARREICHUNGSFORM UND INHALT"/>
				<code>
					<coding>
						<system value="http://spor.ema.europa.eu/v1/example-sections"/>
						<code value="${document[n].section[n].subsection[n].typeCode}"/>
						<display value="${document[n].section[n].subsection[n].typeDisplay}"/>
					</coding>
				</code>
		<text>
			<status value="additional"/>
			<div xmlns="http://www.w3.org/1999/xhtml">
		    <p class="MsoNormal"></p><p class="MsoNormal"><span lang="DE">Injektionslösung im Fertigpen.</span></p><p class="MsoNormal"><span lang="DE">1 Mehrfachdosis‑Fertigpen</span></p><p class="MsoNormal"><span lang="DE">8 Injektionsnadeln.</span></p><p class="MsoNormal"></p><p class="MsoNormal"></p>
			</div>
		</text>
		
    	    
		
</section>
			    
    	    

			    
		               
<section>
			<title value="5.       HINWEISE ZUR UND ART(EN) DER ANWENDUNG"/>
				<code>
					<coding>
						<system value="http://spor.ema.europa.eu/v1/example-sections"/>
						<code value="${document[n].section[n].subsection[n].typeCode}"/>
						<display value="${document[n].section[n].subsection[n].typeDisplay}"/>
					</coding>
				</code>
		<text>
			<status value="additional"/>
			<div xmlns="http://www.w3.org/1999/xhtml">
		    <p class="MsoNormal"></p><p class="MsoNormal"><span lang="DE">Packungsbeilage beachten.</span></p><p class="MsoNormal"><span lang="DE">Subkutane Anwendung.</span></p><p class="MsoNormal"></p><p class="MsoNormal"></p>
			</div>
		</text>
		
    	    
		
</section>
			    
    	    

			    
		               
<section>
			<title value="6.       WARNHINWEIS, DASS DAS ARZNEIMITTEL FÜR KINDER UNZUGÄNGLICH AUFZUBEWAHREN IST"/>
				<code>
					<coding>
						<system value="http://spor.ema.europa.eu/v1/example-sections"/>
						<code value="${document[n].section[n].subsection[n].typeCode}"/>
						<display value="${document[n].section[n].subsection[n].typeDisplay}"/>
					</coding>
				</code>
		<text>
			<status value="additional"/>
			<div xmlns="http://www.w3.org/1999/xhtml">
		    <p class="MsoNormal"></p><p class="MsoNormal"><span lang="DE">Arzneimittel für Kinder unzugänglich aufbewahren.</span></p><p class="MsoNormal"></p><p class="MsoNormal"></p>
			</div>
		</text>
		
    	    
		
</section>
			    
    	    

			    
		               
<section>
			<title value="7.       WEITERE WARNHINWEISE, FALLS ERFORDERLICH"/>
				<code>
					<coding>
						<system value="http://spor.ema.europa.eu/v1/example-sections"/>
						<code value="${document[n].section[n].subsection[n].typeCode}"/>
						<display value="${document[n].section[n].subsection[n].typeDisplay}"/>
					</coding>
				</code>
		<text>
			<status value="additional"/>
			<div xmlns="http://www.w3.org/1999/xhtml">
		    <p class="MsoNormal"></p><p class="MsoNormal"></p>
			</div>
		</text>
		
    	    
		
</section>
			    
    	    

			    
		               
<section>
			<title value="8.       VERFALLDATUM"/>
				<code>
					<coding>
						<system value="http://spor.ema.europa.eu/v1/example-sections"/>
						<code value="${document[n].section[n].subsection[n].typeCode}"/>
						<display value="${document[n].section[n].subsection[n].typeDisplay}"/>
					</coding>
				</code>
		<text>
			<status value="additional"/>
			<div xmlns="http://www.w3.org/1999/xhtml">
		    <p class="MsoNormal" style="page-break-after:avoid"></p><p class="MsoNormal"><span lang="DE">verwendbar bis</span></p><p class="MsoNormal"></p><p class="MsoNormal"></p>
			</div>
		</text>
		
    	    
		
</section>
			    
    	    

			    
		               
<section>
			<title value="9.       BESONDERE VORSICHTSMASSNAHMEN FÜR DIE AUFBEWAHRUNG"/>
				<code>
					<coding>
						<system value="http://spor.ema.europa.eu/v1/example-sections"/>
						<code value="${document[n].section[n].subsection[n].typeCode}"/>
						<display value="${document[n].section[n].subsection[n].typeDisplay}"/>
					</coding>
				</code>
		<text>
			<status value="additional"/>
			<div xmlns="http://www.w3.org/1999/xhtml">
		    <p class="MsoNormal" style="page-break-after:avoid"></p><p class="MsoNormal" style="page-break-after:avoid"><span lang="DE">Im Kühlschrank lagern. Nicht einfrieren.</span></p><p class="MsoNormal" style="page-break-after:avoid"><span lang="DE">In der Originalverpackung aufbewahren, um den Inhalt vor Licht zu schützen.</span></p><p class="MsoNormal" style="page-break-after:avoid"><span lang="DE">Innerhalb der Haltbarkeitsdauer kann das Arzneimittel bis zu 3 Monate lang bei Temperaturen bis zu 25 °C aufbewahrt werden, ohne gekühlt zu werden. Danach muss es verworfen werden.</span></p><p class="MsoNormal"><span lang="DE">Nach Anbruch kann das Arzneimittel maximal 28 Tage lang bei Temperaturen bis zu 25 °C aufbewahrt werden.</span></p><p class="MsoNormal"></p><p class="MsoNormal"></p>
			</div>
		</text>
		
    	    
		
</section>
			    
    	    

			    
		               
<section>
			<title value="10.     GEGEBENENFALLS BESONDERE VORSICHTSMASSNAHMEN FÜR DIE BESEITIGUNG VON NICHT VERWENDETEM ARZNEIMITTEL ODER DAVON STAMMENDEN ABFALLMATERIALIEN"/>
				<code>
					<coding>
						<system value="http://spor.ema.europa.eu/v1/example-sections"/>
						<code value="${document[n].section[n].subsection[n].typeCode}"/>
						<display value="${document[n].section[n].subsection[n].typeDisplay}"/>
					</coding>
				</code>
		<text>
			<status value="additional"/>
			<div xmlns="http://www.w3.org/1999/xhtml">
		    <p class="MsoNormal"></p><p class="MsoNormal"><span lang="DE">Nicht verwendetes Arzneimittel oder Abfallmaterial ist entsprechend den nationalen Anforderungen zu beseitigen.</span></p><p class="MsoNormal"></p><p class="MsoNormal"></p>
			</div>
		</text>
		
    	    
		
</section>
			    
    	    

			    
		               
<section>
			<title value="11.     NAME UND ANSCHRIFT DES PHARMAZEUTISCHEN UNTERNEHMERS"/>
				<code>
					<coding>
						<system value="http://spor.ema.europa.eu/v1/example-sections"/>
						<code value="${document[n].section[n].subsection[n].typeCode}"/>
						<display value="${document[n].section[n].subsection[n].typeDisplay}"/>
					</coding>
				</code>
		<text>
			<status value="additional"/>
			<div xmlns="http://www.w3.org/1999/xhtml">
		    <p class="MsoNormal" style="margin-left:28.35pt;text-indent:-28.35pt"></p><p class="MsoListParagraph" style="margin:0in;margin-bottom:.0001pt;line-height: normal;page-break-after:avoid"><span lang="DE" style="font-size:11.0pt">Merck Europe B.V.</span></p><p class="MsoListParagraph" style="margin:0in;margin-bottom:.0001pt;line-height: normal;page-break-after:avoid"><span lang="DE" style="font-size:11.0pt">Gustav Mahlerplein 102</span></p><p class="MsoListParagraph" style="margin:0in;margin-bottom:.0001pt;line-height: normal;page-break-after:avoid"><span lang="DE" style="font-size:11.0pt">1082 MA Amsterdam</span></p><p class="MsoNormal"><span lang="DE">Niederlande</span></p><p class="MsoNormal" style="margin-left:28.35pt;text-indent:-28.35pt"></p><p class="MsoNormal" style="margin-left:28.35pt;text-indent:-28.35pt"></p>
			</div>
		</text>
		
    	    
		
</section>
			    
    	    

			    
		               
<section>
			<title value="12.     ZULASSUNGSNUMMER(N)"/>
				<code>
					<coding>
						<system value="http://spor.ema.europa.eu/v1/example-sections"/>
						<code value="${document[n].section[n].subsection[n].typeCode}"/>
						<display value="${document[n].section[n].subsection[n].typeDisplay}"/>
					</coding>
				</code>
		<text>
			<status value="additional"/>
			<div xmlns="http://www.w3.org/1999/xhtml">
		    <p class="MsoNormal" style="margin-left:28.35pt;text-indent:-28.35pt"></p><p class="MsoNormal"><span lang="DE">EU/1/95/001/033   </span><span lang="DE" style="color:black;background:#D9D9D9">Injektionslösung im Fertigpen</span><span lang="DE"><br/> </span><span lang="DE" style="color:black;background: #D9D9D9">8 Injektionsnadeln</span></p><p class="MsoNormal"></p><p class="MsoNormal"></p>
			</div>
		</text>
		
    	    
		
</section>
			    
    	    

			    
		               
<section>
			<title value="13.     CHARGENBEZEICHNUNG"/>
				<code>
					<coding>
						<system value="http://spor.ema.europa.eu/v1/example-sections"/>
						<code value="${document[n].section[n].subsection[n].typeCode}"/>
						<display value="${document[n].section[n].subsection[n].typeDisplay}"/>
					</coding>
				</code>
		<text>
			<status value="additional"/>
			<div xmlns="http://www.w3.org/1999/xhtml">
		    <p class="MsoNormal"></p><p class="MsoNormal"><span lang="DE">Ch.‑B.</span></p><p class="MsoNormal"></p><p class="MsoNormal"></p>
			</div>
		</text>
		
    	    
		
</section>
			    
    	    

			    
		               
<section>
			<title value="14.     VERKAUFSABGRENZUNG"/>
				<code>
					<coding>
						<system value="http://spor.ema.europa.eu/v1/example-sections"/>
						<code value="${document[n].section[n].subsection[n].typeCode}"/>
						<display value="${document[n].section[n].subsection[n].typeDisplay}"/>
					</coding>
				</code>
		<text>
			<status value="additional"/>
			<div xmlns="http://www.w3.org/1999/xhtml">
		    <p class="MsoNormal"></p><p class="MsoNormal"></p>
			</div>
		</text>
		
    	    
		
</section>
			    
    	    

			    
		               
<section>
			<title value="15.     HINWEISE FÜR DEN GEBRAUCH"/>
				<code>
					<coding>
						<system value="http://spor.ema.europa.eu/v1/example-sections"/>
						<code value="${document[n].section[n].subsection[n].typeCode}"/>
						<display value="${document[n].section[n].subsection[n].typeDisplay}"/>
					</coding>
				</code>
		<text>
			<status value="additional"/>
			<div xmlns="http://www.w3.org/1999/xhtml">
		    <p class="MsoNormal"></p><p class="MsoNormal"></p><div style="border:solid windowtext 1.0pt;padding:1.0pt 4.0pt 1.0pt 4.0pt"> <p class="MsoNormal" style="margin-left:28.35pt;text-indent:-28.35pt;border:none; padding:0in"><b><span lang="DE" style="text-transform:uppercase">16.     ANGABEN in BLINDENSCHRIFT</span></b></p> </div><p class="MsoNormal"></p><p class="MsoNormal"><span lang="DE">gonal‑f 300 i.e./0,5 ml</span></p><p class="MsoNormal"></p><p class="MsoNormal"></p>
			</div>
		</text>
		
    	    
		
</section>
			    
    	    

			    
		               
<section>
			<title value="17.     INDIVIDUELLES ERKENNUNGSMERKMAL – 2D-BARCODE"/>
				<code>
					<coding>
						<system value="http://spor.ema.europa.eu/v1/example-sections"/>
						<code value="${document[n].section[n].subsection[n].typeCode}"/>
						<display value="${document[n].section[n].subsection[n].typeDisplay}"/>
					</coding>
				</code>
		<text>
			<status value="additional"/>
			<div xmlns="http://www.w3.org/1999/xhtml">
		    <p class="MsoNormal" style="page-break-after:avoid"></p><p class="MsoNormal"><span lang="DE" style="color:black;background:#D9D9D9">2D-Barcode mit individuellem Erkennungsmerkmal.</span></p><p class="MsoNormal"></p><p class="MsoNormal"></p>
			</div>
		</text>
		
    	    
		
</section>
			    
    	    

			    
		               
<section>
			<title value="18.     INDIVIDUELLES ERKENNUNGSMERKMAL – VOM MENSCHEN LESBARES FORMAT"/>
				<code>
					<coding>
						<system value="http://spor.ema.europa.eu/v1/example-sections"/>
						<code value="${document[n].section[n].subsection[n].typeCode}"/>
						<display value="${document[n].section[n].subsection[n].typeDisplay}"/>
					</coding>
				</code>
		<text>
			<status value="additional"/>
			<div xmlns="http://www.w3.org/1999/xhtml">
		    <p class="MsoNormal" style="page-break-after:avoid"></p><p class="MsoNormal"><span lang="DE">PC</span></p><p class="MsoNormal"><span lang="DE">SN</span></p><p class="MsoNormal"><span lang="DE">NN</span></p><p class="MsoNormal"></p><span lang="DE" style='font-size:11.0pt;font-family:"Times New Roman",serif'><br clear="all" style="page-break-before:always"/> </span><br clear="all" style="page-break-before:always"/>
			</div>
		</text>
		
    	    
		
</section>
			    
    	    
		
</section>
			    
    	    
		
	
		
		
    	    
				
			    
						
		               
<section>
			<title value="ANGABEN AUF DEM PEN"/>
				<code>
					<coding>
						<system value="http://spor.ema.europa.eu/v1/example-sections"/>
						<code value="${document[n].section[n].subsection[n].typeCode}"/>
						<display value="${document[n].section[n].subsection[n].typeDisplay}"/>
					</coding>
				</code>
		<text>
			<status value="additional"/>
			<div xmlns="http://www.w3.org/1999/xhtml">
		    <div style="border:solid windowtext 1.0pt;padding:1.0pt 4.0pt 1.0pt 4.0pt"> <p class="MsoNormal" style="border:none;padding:0in"></p> <p class="MsoNormal" style="border:none;padding:0in"><b><span lang="DE">GONAL-f 300 I.E./0,5 ML PEN, AUFKLEBER</span></b></p> </div><p class="MsoNormal"></p><p class="MsoNormal"><i><span lang="DE" style="color:black;background:#D9D9D9">Es wird ein Aufkleber mitgeliefert, auf dem der Patient den Tag der ersten Anwendung notieren kann.</span></i></p><p class="MsoNormal"></p><p class="MsoNormal"><span lang="EN-GB"><img border="0" height="169" src="#image1" width="203"/></span></p><span lang="DE" style='font-size:11.0pt;font-family:"Times New Roman",serif'><br clear="all" style="page-break-before:always"/> </span><br clear="all" style="page-break-before:always"/>
			</div>
		</text>
		
    	    
		
</section>
			    
    	    
				
			    
						
		               
<section>
			<title value="MINDESTANGABEN AUF KLEINEN BEHÄLTNISSEN"/>
				<code>
					<coding>
						<system value="http://spor.ema.europa.eu/v1/example-sections"/>
						<code value="${document[n].section[n].subsection[n].typeCode}"/>
						<display value="${document[n].section[n].subsection[n].typeDisplay}"/>
					</coding>
				</code>
		<text>
			<status value="additional"/>
			<div xmlns="http://www.w3.org/1999/xhtml">
		    <div style="border:solid windowtext 1.0pt;padding:1.0pt 4.0pt 1.0pt 4.0pt"> <p class="MsoNormal" style="border:none;padding:0in"></p> <p class="MsoNormal" style="border:none;padding:0in"><b><span lang="DE">GONAL‑f 300 I.E./0,5 ML PEN, ETIKETT DES PENS</span></b></p> </div><p class="MsoNormal"></p><p class="MsoNormal"></p>
			</div>
		</text>
		
    	    

			    
		               
<section>
			<title value="1.       BEZEICHNUNG DES ARZNEIMITTELS SOWIE ART(EN) DER ANWENDUNG"/>
				<code>
					<coding>
						<system value="http://spor.ema.europa.eu/v1/example-sections"/>
						<code value="${document[n].section[n].subsection[n].typeCode}"/>
						<display value="${document[n].section[n].subsection[n].typeDisplay}"/>
					</coding>
				</code>
		<text>
			<status value="additional"/>
			<div xmlns="http://www.w3.org/1999/xhtml">
		    <p class="MsoNormal"></p><p class="MsoNormal"><span lang="DE">GONAL‑f 300 I.E./0,5 ml Injektionslösung im Fertigpen</span></p><p class="MsoNormal"><span lang="DE">Follitropin alfa</span></p><p class="MsoNormal"><span lang="DE">Subkutane Anwendung</span></p><p class="MsoNormal"></p><p class="MsoNormal"></p>
			</div>
		</text>
		
    	    
		
</section>
			    
    	    

			    
		               
<section>
			<title value="2.       HINWEISE ZUR ANWENDUNG"/>
				<code>
					<coding>
						<system value="http://spor.ema.europa.eu/v1/example-sections"/>
						<code value="${document[n].section[n].subsection[n].typeCode}"/>
						<display value="${document[n].section[n].subsection[n].typeDisplay}"/>
					</coding>
				</code>
		<text>
			<status value="additional"/>
			<div xmlns="http://www.w3.org/1999/xhtml">
		    <p class="MsoNormal"></p><p class="MsoNormal"></p>
			</div>
		</text>
		
    	    
		
</section>
			    
    	    

			    
		               
<section>
			<title value="3.       VERFALLDATUM"/>
				<code>
					<coding>
						<system value="http://spor.ema.europa.eu/v1/example-sections"/>
						<code value="${document[n].section[n].subsection[n].typeCode}"/>
						<display value="${document[n].section[n].subsection[n].typeDisplay}"/>
					</coding>
				</code>
		<text>
			<status value="additional"/>
			<div xmlns="http://www.w3.org/1999/xhtml">
		    <p class="MsoNormal"></p><p class="MsoNormal"><span lang="DE">verw. bis</span></p><p class="MsoNormal"><span lang="DE">Haltbarkeit nach erstmaliger Anwendung: 28 Tage</span></p><p class="MsoNormal"></p><p class="MsoNormal"></p>
			</div>
		</text>
		
    	    
		
</section>
			    
    	    

			    
		               
<section>
			<title value="4.       CHARGENBEZEICHNUNG"/>
				<code>
					<coding>
						<system value="http://spor.ema.europa.eu/v1/example-sections"/>
						<code value="${document[n].section[n].subsection[n].typeCode}"/>
						<display value="${document[n].section[n].subsection[n].typeDisplay}"/>
					</coding>
				</code>
		<text>
			<status value="additional"/>
			<div xmlns="http://www.w3.org/1999/xhtml">
		    <p class="MsoNormal"></p><p class="MsoNormal"><span lang="DE">Ch.‑B.</span></p><p class="MsoNormal"></p><p class="MsoNormal"></p>
			</div>
		</text>
		
    	    
		
</section>
			    
    	    

			    
		               
<section>
			<title value="5.       INHALT NACH GEWICHT, VOLUMEN ODER EINHEITEN"/>
				<code>
					<coding>
						<system value="http://spor.ema.europa.eu/v1/example-sections"/>
						<code value="${document[n].section[n].subsection[n].typeCode}"/>
						<display value="${document[n].section[n].subsection[n].typeDisplay}"/>
					</coding>
				</code>
		<text>
			<status value="additional"/>
			<div xmlns="http://www.w3.org/1999/xhtml">
		    <p class="MsoNormal"></p><p class="MsoNormal"><span lang="DE" style="color:black;background:#BFBFBF">300 I.E./0,5 ml</span></p><p class="MsoNormal"></p><p class="MsoNormal"></p>
			</div>
		</text>
		
    	    
		
</section>
			    
    	    

			    
		               
<section>
			<title value="6.       WEITERE ANGABEN"/>
				<code>
					<coding>
						<system value="http://spor.ema.europa.eu/v1/example-sections"/>
						<code value="${document[n].section[n].subsection[n].typeCode}"/>
						<display value="${document[n].section[n].subsection[n].typeDisplay}"/>
					</coding>
				</code>
		<text>
			<status value="additional"/>
			<div xmlns="http://www.w3.org/1999/xhtml">
		    <p class="MsoNormal"></p><p class="MsoNormal"></p><span lang="DE" style='font-size:11.0pt;font-family:"Times New Roman",serif'><br clear="all" style="page-break-before:always"/> </span><br clear="all" style="page-break-before:always"/>
			</div>
		</text>
		
    	    
		
</section>
			    
    	    
		
</section>
			    
    	    
		
	
		
		
    	    
				
			    
						
		               
<section>
			<title value="ANGABEN AUF DER ÄUSSEREN UMHÜLLUNG"/>
				<code>
					<coding>
						<system value="http://spor.ema.europa.eu/v1/example-sections"/>
						<code value="${document[n].section[n].subsection[n].typeCode}"/>
						<display value="${document[n].section[n].subsection[n].typeDisplay}"/>
					</coding>
				</code>
		<text>
			<status value="additional"/>
			<div xmlns="http://www.w3.org/1999/xhtml">
		    <div style="border:solid windowtext 1.0pt;padding:1.0pt 4.0pt 1.0pt 4.0pt"> <p class="MsoNormal" style="border:none;padding:0in"></p> <p class="MsoNormal" style="border:none;padding:0in"><b><span lang="DE">GONAL-f 450 I.E./0,75 ML, SCHACHTEL MIT 1 FERTIGPEN</span></b></p> </div><p class="MsoNormal" style="margin-left:-7.1pt;text-indent:7.1pt"></p><p class="MsoNormal" style="margin-left:-7.1pt;text-indent:7.1pt"></p>
			</div>
		</text>
		
    	    

			    
		               
<section>
			<title value="1.       BEZEICHNUNG DES ARZNEIMITTELS"/>
				<code>
					<coding>
						<system value="http://spor.ema.europa.eu/v1/example-sections"/>
						<code value="${document[n].section[n].subsection[n].typeCode}"/>
						<display value="${document[n].section[n].subsection[n].typeDisplay}"/>
					</coding>
				</code>
		<text>
			<status value="additional"/>
			<div xmlns="http://www.w3.org/1999/xhtml">
		    <p class="MsoNormal"></p><p class="MsoNormal"><span lang="DE">GONAL‑f 450 I.E./0,75 ml Injektionslösung</span><span lang="DE"> im Fertigpen</span></p><p class="MsoNormal"><span lang="DE">Follitropin alfa</span></p><p class="MsoNormal"><u><span lang="DE"></span></u></p><p class="MsoNormal"><u><span lang="DE"></span></u></p>
			</div>
		</text>
		
    	    
		
</section>
			    
    	    

			    
		               
<section>
			<title value="2.       WIRKSTOFF(E)"/>
				<code>
					<coding>
						<system value="http://spor.ema.europa.eu/v1/example-sections"/>
						<code value="${document[n].section[n].subsection[n].typeCode}"/>
						<display value="${document[n].section[n].subsection[n].typeDisplay}"/>
					</coding>
				</code>
		<text>
			<status value="additional"/>
			<div xmlns="http://www.w3.org/1999/xhtml">
		    <p class="MsoNormal"></p><p class="MsoNormal"><span lang="DE">Ein Mehrfachdosis‑Fertigpen enthält 450 I.E. Follitropin alfa, entsprechend 33 Mikrogramm in 0,75 ml.</span></p><p class="MsoNormal"><span lang="DE">Follitropin alfa, 600 I.E./ml (entspricht 44 Mikrogramm/ml).</span></p><p class="MsoNormal"></p><p class="MsoNormal"></p>
			</div>
		</text>
		
    	    
		
</section>
			    
    	    

			    
		               
<section>
			<title value="3.       SONSTIGE BESTANDTEILE"/>
				<code>
					<coding>
						<system value="http://spor.ema.europa.eu/v1/example-sections"/>
						<code value="${document[n].section[n].subsection[n].typeCode}"/>
						<display value="${document[n].section[n].subsection[n].typeDisplay}"/>
					</coding>
				</code>
		<text>
			<status value="additional"/>
			<div xmlns="http://www.w3.org/1999/xhtml">
		    <p class="MsoNormal"></p><p class="MsoNormal"><span lang="DE">Sonstige Bestandteile: Poloxamer 188, Sucrose, Methionin, Natriumdihydrogenphosphat‑1H<sub>2</sub>O, Natriummonohydrogenphosphat‑Dihydrat, m‑Cresol, konzentrierte Phosphorsäure, Natriumhydroxid und Wasser für Injektionszwecke.</span></p><p class="MsoNormal"></p><p class="MsoNormal"></p>
			</div>
		</text>
		
    	    
		
</section>
			    
    	    

			    
		               
<section>
			<title value="4.       DARREICHUNGSFORM UND INHALT"/>
				<code>
					<coding>
						<system value="http://spor.ema.europa.eu/v1/example-sections"/>
						<code value="${document[n].section[n].subsection[n].typeCode}"/>
						<display value="${document[n].section[n].subsection[n].typeDisplay}"/>
					</coding>
				</code>
		<text>
			<status value="additional"/>
			<div xmlns="http://www.w3.org/1999/xhtml">
		    <p class="MsoNormal"></p><p class="MsoNormal"><span lang="DE">Injektionslösung im Fertigpen.</span></p><p class="MsoNormal"><span lang="DE">1 Mehrfachdosis‑Fertigpen </span></p><p class="MsoNormal"><span lang="DE">12 Injektionsnadeln</span></p><p class="MsoNormal"></p><p class="MsoNormal"></p>
			</div>
		</text>
		
    	    
		
</section>
			    
    	    

			    
		               
<section>
			<title value="5.       HINWEISE ZUR UND ART(EN) DER ANWENDUNG"/>
				<code>
					<coding>
						<system value="http://spor.ema.europa.eu/v1/example-sections"/>
						<code value="${document[n].section[n].subsection[n].typeCode}"/>
						<display value="${document[n].section[n].subsection[n].typeDisplay}"/>
					</coding>
				</code>
		<text>
			<status value="additional"/>
			<div xmlns="http://www.w3.org/1999/xhtml">
		    <p class="MsoNormal"></p><p class="MsoNormal"><span lang="DE">Packungsbeilage beachten.</span></p><p class="MsoNormal"><span lang="DE">Subkutane Anwendung.</span></p><p class="MsoNormal"></p><p class="MsoNormal"></p>
			</div>
		</text>
		
    	    
		
</section>
			    
    	    

			    
		               
<section>
			<title value="6.       WARNHINWEIS, DASS DAS ARZNEIMITTEL FÜR KINDER UNZUGÄNGLICH AUFZUBEWAHREN IST"/>
				<code>
					<coding>
						<system value="http://spor.ema.europa.eu/v1/example-sections"/>
						<code value="${document[n].section[n].subsection[n].typeCode}"/>
						<display value="${document[n].section[n].subsection[n].typeDisplay}"/>
					</coding>
				</code>
		<text>
			<status value="additional"/>
			<div xmlns="http://www.w3.org/1999/xhtml">
		    <p class="MsoNormal"></p><p class="MsoNormal"><span lang="DE">Arzneimittel für Kinder unzugänglich aufbewahren.</span></p><p class="MsoNormal"></p><p class="MsoNormal"></p>
			</div>
		</text>
		
    	    
		
</section>
			    
    	    

			    
		               
<section>
			<title value="7.       WEITERE WARNHINWEISE, FALLS ERFORDERLICH"/>
				<code>
					<coding>
						<system value="http://spor.ema.europa.eu/v1/example-sections"/>
						<code value="${document[n].section[n].subsection[n].typeCode}"/>
						<display value="${document[n].section[n].subsection[n].typeDisplay}"/>
					</coding>
				</code>
		<text>
			<status value="additional"/>
			<div xmlns="http://www.w3.org/1999/xhtml">
		    <p class="MsoNormal"></p><p class="MsoNormal"></p>
			</div>
		</text>
		
    	    
		
</section>
			    
    	    

			    
		               
<section>
			<title value="8.       VERFALLDATUM"/>
				<code>
					<coding>
						<system value="http://spor.ema.europa.eu/v1/example-sections"/>
						<code value="${document[n].section[n].subsection[n].typeCode}"/>
						<display value="${document[n].section[n].subsection[n].typeDisplay}"/>
					</coding>
				</code>
		<text>
			<status value="additional"/>
			<div xmlns="http://www.w3.org/1999/xhtml">
		    <p class="MsoNormal" style="page-break-after:avoid"></p><p class="MsoNormal"><span lang="DE">verwendbar bis</span></p><p class="MsoNormal"></p><p class="MsoNormal"></p>
			</div>
		</text>
		
    	    
		
</section>
			    
    	    

			    
		               
<section>
			<title value="9.       BESONDERE VORSICHTSMASSNAHMEN FÜR DIE AUFBEWAHRUNG"/>
				<code>
					<coding>
						<system value="http://spor.ema.europa.eu/v1/example-sections"/>
						<code value="${document[n].section[n].subsection[n].typeCode}"/>
						<display value="${document[n].section[n].subsection[n].typeDisplay}"/>
					</coding>
				</code>
		<text>
			<status value="additional"/>
			<div xmlns="http://www.w3.org/1999/xhtml">
		    <p class="MsoNormal" style="page-break-after:avoid"></p><p class="MsoNormal" style="page-break-after:avoid"><span lang="DE">Im Kühlschrank lagern. Nicht einfrieren.</span></p><p class="MsoNormal"><span lang="DE">In der Originalverpackung aufbewahren, um den Inhalt vor Licht zu schützen.</span></p><p class="MsoNormal"><span lang="DE">Innerhalb der Haltbarkeitsdauer kann das Arzneimittel bis zu 3 Monate lang bei Temperaturen bis zu 25 °C aufbewahrt werden, ohne gekühlt zu werden. Danach muss es verworfen werden.</span></p><p class="MsoNormal"><span lang="DE">Nach Anbruch kann das Arzneimittel maximal 28 Tage lang bei Temperaturen bis zu 25 °C aufbewahrt werden.</span></p><p class="MsoNormal"></p><p class="MsoNormal"></p>
			</div>
		</text>
		
    	    
		
</section>
			    
    	    

			    
		               
<section>
			<title value="10.     GEGEBENENFALLS BESONDERE VORSICHTSMASSNAHMEN FÜR DIE BESEITIGUNG VON NICHT VERWENDETEM ARZNEIMITTEL ODER DAVON STAMMENDEN ABFALLMATERIALIEN"/>
				<code>
					<coding>
						<system value="http://spor.ema.europa.eu/v1/example-sections"/>
						<code value="${document[n].section[n].subsection[n].typeCode}"/>
						<display value="${document[n].section[n].subsection[n].typeDisplay}"/>
					</coding>
				</code>
		<text>
			<status value="additional"/>
			<div xmlns="http://www.w3.org/1999/xhtml">
		    <p class="MsoNormal"></p><p class="MsoNormal"><span lang="DE">Nicht verwendetes Arzneimittel oder Abfallmaterial ist entsprechend den nationalen Anforderungen zu beseitigen.</span></p><p class="MsoNormal"></p><p class="MsoNormal"></p>
			</div>
		</text>
		
    	    
		
</section>
			    
    	    

			    
		               
<section>
			<title value="11.     NAME UND ANSCHRIFT DES PHARMAZEUTISCHEN UNTERNEHMERS"/>
				<code>
					<coding>
						<system value="http://spor.ema.europa.eu/v1/example-sections"/>
						<code value="${document[n].section[n].subsection[n].typeCode}"/>
						<display value="${document[n].section[n].subsection[n].typeDisplay}"/>
					</coding>
				</code>
		<text>
			<status value="additional"/>
			<div xmlns="http://www.w3.org/1999/xhtml">
		    <p class="MsoNormal" style="margin-left:28.35pt;text-indent:-28.35pt"></p><p align="left" class="MsoListParagraph" style="margin:0in;margin-bottom:.0001pt; text-align:left;line-height:normal;page-break-after:avoid"><span lang="DE" style="font-size:11.0pt">Merck Europe B.V.</span></p><p align="left" class="MsoListParagraph" style="margin:0in;margin-bottom:.0001pt; text-align:left;line-height:normal;page-break-after:avoid"><span lang="DE" style="font-size:11.0pt">Gustav Mahlerplein 102</span></p><p align="left" class="MsoListParagraph" style="margin:0in;margin-bottom:.0001pt; text-align:left;line-height:normal;page-break-after:avoid"><span lang="DE" style="font-size:11.0pt">1082 MA Amsterdam</span></p><p class="MsoNormal"><span lang="DE">Niederlande</span></p><p class="MsoNormal" style="margin-left:28.35pt;text-indent:-28.35pt"></p><p class="MsoNormal" style="margin-left:28.35pt;text-indent:-28.35pt"></p>
			</div>
		</text>
		
    	    
		
</section>
			    
    	    

			    
		               
<section>
			<title value="12.     ZULASSUNGSNUMMER(N)"/>
				<code>
					<coding>
						<system value="http://spor.ema.europa.eu/v1/example-sections"/>
						<code value="${document[n].section[n].subsection[n].typeCode}"/>
						<display value="${document[n].section[n].subsection[n].typeDisplay}"/>
					</coding>
				</code>
		<text>
			<status value="additional"/>
			<div xmlns="http://www.w3.org/1999/xhtml">
		    <p class="MsoNormal" style="margin-left:28.35pt;text-indent:-28.35pt"></p><p class="MsoNormal"><span lang="DE">EU/1/95/001/034   </span><span lang="DE" style="color:black;background:#D9D9D9">Injektionslösung im Fertigpen</span></p><p class="MsoNormal"><span lang="DE" style="color:black;background:#D9D9D9">12 Injektionsnadeln</span></p><p class="MsoNormal"></p><p class="MsoNormal"></p>
			</div>
		</text>
		
    	    
		
</section>
			    
    	    

			    
		               
<section>
			<title value="13.     CHARGENBEZEICHNUNG"/>
				<code>
					<coding>
						<system value="http://spor.ema.europa.eu/v1/example-sections"/>
						<code value="${document[n].section[n].subsection[n].typeCode}"/>
						<display value="${document[n].section[n].subsection[n].typeDisplay}"/>
					</coding>
				</code>
		<text>
			<status value="additional"/>
			<div xmlns="http://www.w3.org/1999/xhtml">
		    <p class="MsoNormal"></p><p class="MsoNormal"><span lang="DE">Ch.‑B.</span></p><p class="MsoNormal"></p><p class="MsoNormal"></p>
			</div>
		</text>
		
    	    
		
</section>
			    
    	    

			    
		               
<section>
			<title value="14.     VERKAUFSABGRENZUNG"/>
				<code>
					<coding>
						<system value="http://spor.ema.europa.eu/v1/example-sections"/>
						<code value="${document[n].section[n].subsection[n].typeCode}"/>
						<display value="${document[n].section[n].subsection[n].typeDisplay}"/>
					</coding>
				</code>
		<text>
			<status value="additional"/>
			<div xmlns="http://www.w3.org/1999/xhtml">
		    <p class="MsoNormal"></p><p class="MsoNormal"></p>
			</div>
		</text>
		
    	    
		
</section>
			    
    	    

			    
		               
<section>
			<title value="15.     HINWEISE FÜR DEN GEBRAUCH"/>
				<code>
					<coding>
						<system value="http://spor.ema.europa.eu/v1/example-sections"/>
						<code value="${document[n].section[n].subsection[n].typeCode}"/>
						<display value="${document[n].section[n].subsection[n].typeDisplay}"/>
					</coding>
				</code>
		<text>
			<status value="additional"/>
			<div xmlns="http://www.w3.org/1999/xhtml">
		    <p class="MsoNormal"></p><p class="MsoNormal"></p><div style="border:solid windowtext 1.0pt;padding:1.0pt 4.0pt 1.0pt 4.0pt"> <p class="MsoNormal" style="margin-left:28.35pt;text-indent:-28.35pt;border:none; padding:0in"><b><span lang="DE" style="text-transform:uppercase">16.     ANGABEN in BLINDENSCHRIFT</span></b></p> </div><p class="MsoNormal"></p><p class="MsoNormal"><span lang="DE">gonal‑f 450 i.e./0,75 ml</span></p><p class="MsoNormal"></p><p class="MsoNormal"></p>
			</div>
		</text>
		
    	    
		
</section>
			    
    	    

			    
		               
<section>
			<title value="17.     INDIVIDUELLES ERKENNUNGSMERKMAL – 2D-BARCODE"/>
				<code>
					<coding>
						<system value="http://spor.ema.europa.eu/v1/example-sections"/>
						<code value="${document[n].section[n].subsection[n].typeCode}"/>
						<display value="${document[n].section[n].subsection[n].typeDisplay}"/>
					</coding>
				</code>
		<text>
			<status value="additional"/>
			<div xmlns="http://www.w3.org/1999/xhtml">
		    <p class="MsoNormal" style="page-break-after:avoid"></p><p class="MsoNormal"><span lang="DE" style="color:black;background:#D9D9D9">2D-Barcode mit individuellem Erkennungsmerkmal.</span></p><p class="MsoNormal"></p><p class="MsoNormal"></p>
			</div>
		</text>
		
    	    
		
</section>
			    
    	    

			    
		               
<section>
			<title value="18.     INDIVIDUELLES ERKENNUNGSMERKMAL – VOM MENSCHEN LESBARES FORMAT"/>
				<code>
					<coding>
						<system value="http://spor.ema.europa.eu/v1/example-sections"/>
						<code value="${document[n].section[n].subsection[n].typeCode}"/>
						<display value="${document[n].section[n].subsection[n].typeDisplay}"/>
					</coding>
				</code>
		<text>
			<status value="additional"/>
			<div xmlns="http://www.w3.org/1999/xhtml">
		    <p class="MsoNormal" style="page-break-after:avoid"></p><p class="MsoNormal"><span lang="DE">PC</span></p><p class="MsoNormal"><span lang="DE">SN</span></p><p class="MsoNormal"><span lang="DE">NN</span></p><p class="MsoNormal"></p><span lang="DE" style='font-size:11.0pt;font-family:"Times New Roman",serif'><br clear="all" style="page-break-before:always"/> </span><br clear="all" style="page-break-before:always"/>
			</div>
		</text>
		
    	    
		
</section>
			    
    	    
		
</section>
			    
    	    
		
	
		
		
    	    
				
			    
						
		               
<section>
			<title value="ANGABEN AUF DEM PEN"/>
				<code>
					<coding>
						<system value="http://spor.ema.europa.eu/v1/example-sections"/>
						<code value="${document[n].section[n].subsection[n].typeCode}"/>
						<display value="${document[n].section[n].subsection[n].typeDisplay}"/>
					</coding>
				</code>
		<text>
			<status value="additional"/>
			<div xmlns="http://www.w3.org/1999/xhtml">
		    <div style="border:solid windowtext 1.0pt;padding:1.0pt 4.0pt 1.0pt 4.0pt"> <p class="MsoNormal" style="border:none;padding:0in"></p> <p class="MsoNormal" style="border:none;padding:0in"><b><span lang="DE">GONAL‑f 450 I.E./0,75 ML PEN, AUFKLEBER</span></b></p> </div><p class="MsoNormal"></p><p class="MsoNormal"><i><span lang="DE" style="color:black;background:#D9D9D9">Es wird ein Aufkleber mitgeliefert, auf dem der Patient den Tag der ersten Anwendung notieren kann.</span></i></p><p class="MsoNormal"></p><p class="MsoNormal"><span lang="EN-GB"><img border="0" height="169" src="#image2" width="203"/></span></p><span lang="DE" style='font-size:11.0pt;font-family:"Times New Roman",serif'><br clear="all" style="page-break-before:always"/> </span><br clear="all" style="page-break-before:always"/>
			</div>
		</text>
		
    	    
		
</section>
			    
    	    
				
			    
						
		               
<section>
			<title value="MINDESTANGABEN AUF KLEINEN BEHÄLTNISSEN"/>
				<code>
					<coding>
						<system value="http://spor.ema.europa.eu/v1/example-sections"/>
						<code value="${document[n].section[n].subsection[n].typeCode}"/>
						<display value="${document[n].section[n].subsection[n].typeDisplay}"/>
					</coding>
				</code>
		<text>
			<status value="additional"/>
			<div xmlns="http://www.w3.org/1999/xhtml">
		    <div style="border:solid windowtext 1.0pt;padding:1.0pt 4.0pt 1.0pt 4.0pt"> <p class="MsoNormal" style="border:none;padding:0in"></p> <p class="MsoNormal" style="border:none;padding:0in"><b><span lang="DE">GONAL‑f 450 I.E./0,75 ML PEN, ETIKETT DES PENS</span></b></p> </div><p class="MsoNormal"></p><p class="MsoNormal"></p>
			</div>
		</text>
		
    	    

			    
		               
<section>
			<title value="1.       BEZEICHNUNG DES ARZNEIMITTELS SOWIE ART(EN) DER ANWENDUNG"/>
				<code>
					<coding>
						<system value="http://spor.ema.europa.eu/v1/example-sections"/>
						<code value="${document[n].section[n].subsection[n].typeCode}"/>
						<display value="${document[n].section[n].subsection[n].typeDisplay}"/>
					</coding>
				</code>
		<text>
			<status value="additional"/>
			<div xmlns="http://www.w3.org/1999/xhtml">
		    <p class="MsoNormal"></p><p class="MsoNormal"><span lang="DE">GONAL‑f 450 I.E./0,75 ml Injektionslösung im Fertigpen</span></p><p class="MsoNormal"><span lang="DE">Follitropin alfa</span></p><p class="MsoNormal"><span lang="DE">Subkutane Anwendung</span></p><p class="MsoNormal"></p><p class="MsoNormal"></p>
			</div>
		</text>
		
    	    
		
</section>
			    
    	    

			    
		               
<section>
			<title value="2.       HINWEISE ZUR ANWENDUNG"/>
				<code>
					<coding>
						<system value="http://spor.ema.europa.eu/v1/example-sections"/>
						<code value="${document[n].section[n].subsection[n].typeCode}"/>
						<display value="${document[n].section[n].subsection[n].typeDisplay}"/>
					</coding>
				</code>
		<text>
			<status value="additional"/>
			<div xmlns="http://www.w3.org/1999/xhtml">
		    <p class="MsoNormal"></p><p class="MsoNormal"></p>
			</div>
		</text>
		
    	    
		
</section>
			    
    	    

			    
		               
<section>
			<title value="3.       VERFALLDATUM"/>
				<code>
					<coding>
						<system value="http://spor.ema.europa.eu/v1/example-sections"/>
						<code value="${document[n].section[n].subsection[n].typeCode}"/>
						<display value="${document[n].section[n].subsection[n].typeDisplay}"/>
					</coding>
				</code>
		<text>
			<status value="additional"/>
			<div xmlns="http://www.w3.org/1999/xhtml">
		    <p class="MsoNormal"></p><p class="MsoNormal"><span lang="DE">verw. bis</span></p><p class="MsoNormal"><span lang="DE">Haltbarkeit nach erstmaliger Anwendung: 28 Tage</span></p><p class="MsoNormal"></p><p class="MsoNormal"></p>
			</div>
		</text>
		
    	    
		
</section>
			    
    	    

			    
		               
<section>
			<title value="4.       CHARGENBEZEICHNUNG"/>
				<code>
					<coding>
						<system value="http://spor.ema.europa.eu/v1/example-sections"/>
						<code value="${document[n].section[n].subsection[n].typeCode}"/>
						<display value="${document[n].section[n].subsection[n].typeDisplay}"/>
					</coding>
				</code>
		<text>
			<status value="additional"/>
			<div xmlns="http://www.w3.org/1999/xhtml">
		    <p class="MsoNormal"></p><p class="MsoNormal"><span lang="DE">Ch.‑B.</span></p><p class="MsoNormal"></p><p class="MsoNormal"></p>
			</div>
		</text>
		
    	    
		
</section>
			    
    	    

			    
		               
<section>
			<title value="5.       INHALT NACH GEWICHT, VOLUMEN ODER EINHEITEN"/>
				<code>
					<coding>
						<system value="http://spor.ema.europa.eu/v1/example-sections"/>
						<code value="${document[n].section[n].subsection[n].typeCode}"/>
						<display value="${document[n].section[n].subsection[n].typeDisplay}"/>
					</coding>
				</code>
		<text>
			<status value="additional"/>
			<div xmlns="http://www.w3.org/1999/xhtml">
		    <p class="MsoNormal"></p><p class="MsoNormal"><span lang="DE" style="color:black;background:#BFBFBF">450 I.E./0,75 ml</span></p><p class="MsoNormal"></p><p class="MsoNormal"></p>
			</div>
		</text>
		
    	    
		
</section>
			    
    	    

			    
		               
<section>
			<title value="6.       WEITERE ANGABEN"/>
				<code>
					<coding>
						<system value="http://spor.ema.europa.eu/v1/example-sections"/>
						<code value="${document[n].section[n].subsection[n].typeCode}"/>
						<display value="${document[n].section[n].subsection[n].typeDisplay}"/>
					</coding>
				</code>
		<text>
			<status value="additional"/>
			<div xmlns="http://www.w3.org/1999/xhtml">
		    <p class="MsoNormal"></p><p class="MsoNormal"></p><span lang="DE" style='font-size:11.0pt;font-family:"Times New Roman",serif'><br clear="all" style="page-break-before:always"/> </span><br clear="all" style="page-break-before:always"/>
			</div>
		</text>
		
    	    
		
</section>
			    
    	    
		
</section>
			    
    	    
		
	
		
		
    	    
				
			    
						
		               
<section>
			<title value="ANGABEN AUF DER ÄUSSEREN UMHÜLLUNG"/>
				<code>
					<coding>
						<system value="http://spor.ema.europa.eu/v1/example-sections"/>
						<code value="${document[n].section[n].subsection[n].typeCode}"/>
						<display value="${document[n].section[n].subsection[n].typeDisplay}"/>
					</coding>
				</code>
		<text>
			<status value="additional"/>
			<div xmlns="http://www.w3.org/1999/xhtml">
		    <div style="border:solid windowtext 1.0pt;padding:1.0pt 4.0pt 1.0pt 4.0pt"> <p class="MsoNormal" style="border:none;padding:0in"></p> <p class="MsoNormal" style="border:none;padding:0in"><b><span lang="DE">GONAL‑f 900 I.E./1,5 ML PEN, SCHACHTEL MIT 1 FERTIGPEN</span></b></p> </div><p class="MsoNormal" style="margin-left:-7.1pt;text-indent:7.1pt"></p><p class="MsoNormal" style="margin-left:-7.1pt;text-indent:7.1pt"></p>
			</div>
		</text>
		
    	    

			    
		               
<section>
			<title value="1.       BEZEICHNUNG DES ARZNEIMITTELS"/>
				<code>
					<coding>
						<system value="http://spor.ema.europa.eu/v1/example-sections"/>
						<code value="${document[n].section[n].subsection[n].typeCode}"/>
						<display value="${document[n].section[n].subsection[n].typeDisplay}"/>
					</coding>
				</code>
		<text>
			<status value="additional"/>
			<div xmlns="http://www.w3.org/1999/xhtml">
		    <p class="MsoNormal"></p><p class="MsoNormal"><span lang="DE">GONAL‑f 900 I.E./1,5 ml Injektionslösung im </span><span lang="DE">Fertigpen</span></p><p class="MsoNormal"><span lang="DE">Follitropin alfa</span></p><p class="MsoNormal"><u><span lang="DE"></span></u></p><p class="MsoNormal"><u><span lang="DE"></span></u></p>
			</div>
		</text>
		
    	    
		
</section>
			    
    	    

			    
		               
<section>
			<title value="2.       WIRKSTOFF(E)"/>
				<code>
					<coding>
						<system value="http://spor.ema.europa.eu/v1/example-sections"/>
						<code value="${document[n].section[n].subsection[n].typeCode}"/>
						<display value="${document[n].section[n].subsection[n].typeDisplay}"/>
					</coding>
				</code>
		<text>
			<status value="additional"/>
			<div xmlns="http://www.w3.org/1999/xhtml">
		    <p class="MsoNormal"></p><p class="MsoNormal"><span lang="DE">Ein Mehrfachdosis‑Fertigpen enthält 900 I.E. Follitropin alfa, entsprechend 66 Mikrogramm in 1,5 ml.</span></p><p class="MsoNormal"><span lang="DE">Follitropin alfa, 600 I.E./ml (entspricht 44 Mikrogramm/ml).</span></p><p class="MsoNormal"></p><p class="MsoNormal"></p>
			</div>
		</text>
		
    	    
		
</section>
			    
    	    

			    
		               
<section>
			<title value="3.       SONSTIGE BESTANDTEILE"/>
				<code>
					<coding>
						<system value="http://spor.ema.europa.eu/v1/example-sections"/>
						<code value="${document[n].section[n].subsection[n].typeCode}"/>
						<display value="${document[n].section[n].subsection[n].typeDisplay}"/>
					</coding>
				</code>
		<text>
			<status value="additional"/>
			<div xmlns="http://www.w3.org/1999/xhtml">
		    <p class="MsoNormal"></p><p class="MsoNormal"><span lang="DE">Sonstige Bestandteile: Poloxamer 188, Sucrose, Methionin, Natriumdihydrogenphosphat‑1H<sub>2</sub>O, Natriummonohydrogenphosphat‑Dihydrat, m‑Cresol, konzentrierte Phosphorsäure, Natriumhydroxid und Wasser für Injektionszwecke.</span></p><p class="MsoNormal"></p><p class="MsoNormal"></p>
			</div>
		</text>
		
    	    
		
</section>
			    
    	    

			    
		               
<section>
			<title value="4.       DARREICHUNGSFORM UND INHALT"/>
				<code>
					<coding>
						<system value="http://spor.ema.europa.eu/v1/example-sections"/>
						<code value="${document[n].section[n].subsection[n].typeCode}"/>
						<display value="${document[n].section[n].subsection[n].typeDisplay}"/>
					</coding>
				</code>
		<text>
			<status value="additional"/>
			<div xmlns="http://www.w3.org/1999/xhtml">
		    <p class="MsoNormal"></p><p class="MsoNormal"><span lang="DE">Injektionslösung im Fertigpen.</span></p><p class="MsoNormal"><span lang="DE">1 Mehrfachdosis‑Fertigpen </span></p><p class="MsoNormal"><span lang="DE">20 Injektionsnadeln.</span></p><p class="MsoNormal"></p><p class="MsoNormal"></p>
			</div>
		</text>
		
    	    
		
</section>
			    
    	    

			    
		               
<section>
			<title value="5.       HINWEISE ZUR UND ART(EN) DER ANWENDUNG"/>
				<code>
					<coding>
						<system value="http://spor.ema.europa.eu/v1/example-sections"/>
						<code value="${document[n].section[n].subsection[n].typeCode}"/>
						<display value="${document[n].section[n].subsection[n].typeDisplay}"/>
					</coding>
				</code>
		<text>
			<status value="additional"/>
			<div xmlns="http://www.w3.org/1999/xhtml">
		    <p class="MsoNormal"></p><p class="MsoNormal"><span lang="DE">Packungsbeilage beachten.</span></p><p class="MsoNormal"><span lang="DE">Subkutane Anwendung.</span></p><p class="MsoNormal"></p><p class="MsoNormal"></p>
			</div>
		</text>
		
    	    
		
</section>
			    
    	    

			    
		               
<section>
			<title value="6.       WARNHINWEIS, DASS DAS ARZNEIMITTEL FÜR KINDER UNZUGÄNGLICH AUFZUBEWAHREN IST"/>
				<code>
					<coding>
						<system value="http://spor.ema.europa.eu/v1/example-sections"/>
						<code value="${document[n].section[n].subsection[n].typeCode}"/>
						<display value="${document[n].section[n].subsection[n].typeDisplay}"/>
					</coding>
				</code>
		<text>
			<status value="additional"/>
			<div xmlns="http://www.w3.org/1999/xhtml">
		    <p class="MsoNormal"></p><p class="MsoNormal"><span lang="DE">Arzneimittel für Kinder unzugänglich aufbewahren.</span></p><p class="MsoNormal"></p><p class="MsoNormal"></p>
			</div>
		</text>
		
    	    
		
</section>
			    
    	    

			    
		               
<section>
			<title value="7.       WEITERE WARNHINWEISE, FALLS ERFORDERLICH"/>
				<code>
					<coding>
						<system value="http://spor.ema.europa.eu/v1/example-sections"/>
						<code value="${document[n].section[n].subsection[n].typeCode}"/>
						<display value="${document[n].section[n].subsection[n].typeDisplay}"/>
					</coding>
				</code>
		<text>
			<status value="additional"/>
			<div xmlns="http://www.w3.org/1999/xhtml">
		    <p class="MsoNormal"></p><p class="MsoNormal"></p>
			</div>
		</text>
		
    	    
		
</section>
			    
    	    

			    
		               
<section>
			<title value="8.       VERFALLDATUM"/>
				<code>
					<coding>
						<system value="http://spor.ema.europa.eu/v1/example-sections"/>
						<code value="${document[n].section[n].subsection[n].typeCode}"/>
						<display value="${document[n].section[n].subsection[n].typeDisplay}"/>
					</coding>
				</code>
		<text>
			<status value="additional"/>
			<div xmlns="http://www.w3.org/1999/xhtml">
		    <p class="MsoNormal" style="page-break-after:avoid"></p><p class="MsoNormal"><span lang="DE">verwendbar bis</span></p><p class="MsoNormal"></p><p class="MsoNormal"></p>
			</div>
		</text>
		
    	    
		
</section>
			    
    	    

			    
		               
<section>
			<title value="9.       BESONDERE VORSICHTSMASSNAHMEN FÜR DIE AUFBEWAHRUNG"/>
				<code>
					<coding>
						<system value="http://spor.ema.europa.eu/v1/example-sections"/>
						<code value="${document[n].section[n].subsection[n].typeCode}"/>
						<display value="${document[n].section[n].subsection[n].typeDisplay}"/>
					</coding>
				</code>
		<text>
			<status value="additional"/>
			<div xmlns="http://www.w3.org/1999/xhtml">
		    <p class="MsoNormal" style="page-break-after:avoid"></p><p class="MsoNormal" style="page-break-after:avoid"><span lang="DE">Im Kühlschrank lagern. Nicht einfrieren.</span></p><p class="MsoNormal" style="page-break-after:avoid"><span lang="DE">In der Originalverpackung aufbewahren, um den Inhalt vor Licht zu schützen.</span></p><p class="MsoNormal" style="page-break-after:avoid"><span lang="DE">Innerhalb der Haltbarkeitsdauer kann das Arzneimittel bis zu 3 Monate lang bei Temperaturen bis zu 25 °C aufbewahrt werden, ohne gekühlt zu werden. Danach muss es verworfen werden.</span></p><p class="MsoNormal" style="page-break-after:avoid"><span lang="DE">Nach Anbruch kann das Arzneimittel maximal 28 Tage lang bei Temperaturen bis zu 25 °C aufbewahrt werden.</span></p><p class="MsoNormal"></p><p class="MsoNormal"></p>
			</div>
		</text>
		
    	    
		
</section>
			    
    	    

			    
		               
<section>
			<title value="10.     GEGEBENENFALLS BESONDERE VORSICHTSMASSNAHMEN FÜR DIE BESEITIGUNG VON NICHT VERWENDETEM ARZNEIMITTEL ODER DAVON STAMMENDEN ABFALLMATERIALIEN"/>
				<code>
					<coding>
						<system value="http://spor.ema.europa.eu/v1/example-sections"/>
						<code value="${document[n].section[n].subsection[n].typeCode}"/>
						<display value="${document[n].section[n].subsection[n].typeDisplay}"/>
					</coding>
				</code>
		<text>
			<status value="additional"/>
			<div xmlns="http://www.w3.org/1999/xhtml">
		    <p class="MsoNormal"></p><p class="MsoNormal"><span lang="DE">Nicht verwendetes Arzneimittel oder Abfallmaterial ist entsprechend den nationalen Anforderungen zu beseitigen.</span></p><p class="MsoNormal"></p><p class="MsoNormal"></p>
			</div>
		</text>
		
    	    
		
</section>
			    
    	    

			    
		               
<section>
			<title value="11.     NAME UND ANSCHRIFT DES PHARMAZEUTISCHEN UNTERNEHMERS"/>
				<code>
					<coding>
						<system value="http://spor.ema.europa.eu/v1/example-sections"/>
						<code value="${document[n].section[n].subsection[n].typeCode}"/>
						<display value="${document[n].section[n].subsection[n].typeDisplay}"/>
					</coding>
				</code>
		<text>
			<status value="additional"/>
			<div xmlns="http://www.w3.org/1999/xhtml">
		    <p class="MsoNormal" style="margin-left:28.35pt;text-indent:-28.35pt"></p><p class="MsoListParagraph" style="margin:0in;margin-bottom:.0001pt;line-height: normal;page-break-after:avoid"><span lang="DE" style="font-size:11.0pt">Merck Europe B.V.</span></p><p class="MsoListParagraph" style="margin:0in;margin-bottom:.0001pt;line-height: normal;page-break-after:avoid"><span lang="DE" style="font-size:11.0pt">Gustav Mahlerplein 102</span></p><p class="MsoListParagraph" style="margin:0in;margin-bottom:.0001pt;line-height: normal;page-break-after:avoid"><span lang="DE" style="font-size:11.0pt">1082 MA Amsterdam</span></p><p class="MsoNormal"><span lang="DE">Niederlande</span></p><p class="MsoNormal" style="margin-left:28.35pt;text-indent:-28.35pt"></p><p class="MsoNormal" style="margin-left:28.35pt;text-indent:-28.35pt"></p>
			</div>
		</text>
		
    	    
		
</section>
			    
    	    

			    
		               
<section>
			<title value="12.     ZULASSUNGSNUMMER(N)"/>
				<code>
					<coding>
						<system value="http://spor.ema.europa.eu/v1/example-sections"/>
						<code value="${document[n].section[n].subsection[n].typeCode}"/>
						<display value="${document[n].section[n].subsection[n].typeDisplay}"/>
					</coding>
				</code>
		<text>
			<status value="additional"/>
			<div xmlns="http://www.w3.org/1999/xhtml">
		    <p class="MsoNormal" style="margin-left:28.35pt;text-indent:-28.35pt"></p><p class="MsoNormal"><span lang="DE">EU/1/95/001/035   </span><span lang="DE" style="color:black;background:#D9D9D9">Injektionslösung im Fertigpen</span></p><p class="MsoNormal"><span lang="DE" style="color:black;background:#D9D9D9">20 Injektionsnadeln</span></p><p class="MsoNormal"></p><p class="MsoNormal"></p>
			</div>
		</text>
		
    	    
		
</section>
			    
    	    

			    
		               
<section>
			<title value="13.     CHARGENBEZEICHNUNG"/>
				<code>
					<coding>
						<system value="http://spor.ema.europa.eu/v1/example-sections"/>
						<code value="${document[n].section[n].subsection[n].typeCode}"/>
						<display value="${document[n].section[n].subsection[n].typeDisplay}"/>
					</coding>
				</code>
		<text>
			<status value="additional"/>
			<div xmlns="http://www.w3.org/1999/xhtml">
		    <p class="MsoNormal"></p><p class="MsoNormal"><span lang="DE">Ch.‑B.</span></p><p class="MsoNormal"></p><p class="MsoNormal"></p>
			</div>
		</text>
		
    	    
		
</section>
			    
    	    

			    
		               
<section>
			<title value="14.     VERKAUFSABGRENZUNG"/>
				<code>
					<coding>
						<system value="http://spor.ema.europa.eu/v1/example-sections"/>
						<code value="${document[n].section[n].subsection[n].typeCode}"/>
						<display value="${document[n].section[n].subsection[n].typeDisplay}"/>
					</coding>
				</code>
		<text>
			<status value="additional"/>
			<div xmlns="http://www.w3.org/1999/xhtml">
		    <p class="MsoNormal"></p><p class="MsoNormal"></p>
			</div>
		</text>
		
    	    
		
</section>
			    
    	    

			    
		               
<section>
			<title value="15.     HINWEISE FÜR DEN GEBRAUCH"/>
				<code>
					<coding>
						<system value="http://spor.ema.europa.eu/v1/example-sections"/>
						<code value="${document[n].section[n].subsection[n].typeCode}"/>
						<display value="${document[n].section[n].subsection[n].typeDisplay}"/>
					</coding>
				</code>
		<text>
			<status value="additional"/>
			<div xmlns="http://www.w3.org/1999/xhtml">
		    <p class="MsoNormal"></p><p class="MsoNormal"></p><div style="border:solid windowtext 1.0pt;padding:1.0pt 4.0pt 1.0pt 4.0pt"> <p class="MsoNormal" style="margin-left:28.35pt;text-indent:-28.35pt;border:none; padding:0in"><b><span lang="DE" style="text-transform:uppercase">16.     ANGABEN in BLINDENSCHRIFT</span></b></p> </div><p class="MsoNormal"></p><p class="MsoNormal"><span lang="DE">gonal‑f 900 i.e./1,5 ml</span></p><p class="MsoNormal"></p><p class="MsoNormal"></p>
			</div>
		</text>
		
    	    
		
</section>
			    
    	    

			    
		               
<section>
			<title value="17.     INDIVIDUELLES ERKENNUNGSMERKMAL – 2D-BARCODE"/>
				<code>
					<coding>
						<system value="http://spor.ema.europa.eu/v1/example-sections"/>
						<code value="${document[n].section[n].subsection[n].typeCode}"/>
						<display value="${document[n].section[n].subsection[n].typeDisplay}"/>
					</coding>
				</code>
		<text>
			<status value="additional"/>
			<div xmlns="http://www.w3.org/1999/xhtml">
		    <p class="MsoNormal" style="page-break-after:avoid"></p><p class="MsoNormal"><span lang="DE" style="color:black;background:#D9D9D9">2D-Barcode mit individuellem Erkennungsmerkmal.</span></p><p class="MsoNormal"></p><p class="MsoNormal"></p>
			</div>
		</text>
		
    	    
		
</section>
			    
    	    

			    
		               
<section>
			<title value="18.     INDIVIDUELLES ERKENNUNGSMERKMAL – VOM MENSCHEN LESBARES FORMAT"/>
				<code>
					<coding>
						<system value="http://spor.ema.europa.eu/v1/example-sections"/>
						<code value="${document[n].section[n].subsection[n].typeCode}"/>
						<display value="${document[n].section[n].subsection[n].typeDisplay}"/>
					</coding>
				</code>
		<text>
			<status value="additional"/>
			<div xmlns="http://www.w3.org/1999/xhtml">
		    <p class="MsoNormal" style="page-break-after:avoid"></p><p class="MsoNormal"><span lang="DE">PC</span></p><p class="MsoNormal"><span lang="DE">SN</span></p><p class="MsoNormal"><span lang="DE">NN</span></p><p class="MsoNormal"></p><span lang="DE" style='font-size:11.0pt;font-family:"Times New Roman",serif'><br clear="all" style="page-break-before:always"/> </span><br clear="all" style="page-break-before:always"/>
			</div>
		</text>
		
    	    
		
</section>
			    
    	    
		
</section>
			    
    	    
		
	
		
		
    	    
				
			    
						
		               
<section>
			<title value="ANGABEN AUF DEM PEN"/>
				<code>
					<coding>
						<system value="http://spor.ema.europa.eu/v1/example-sections"/>
						<code value="${document[n].section[n].subsection[n].typeCode}"/>
						<display value="${document[n].section[n].subsection[n].typeDisplay}"/>
					</coding>
				</code>
		<text>
			<status value="additional"/>
			<div xmlns="http://www.w3.org/1999/xhtml">
		    <div style="border:solid windowtext 1.0pt;padding:1.0pt 4.0pt 1.0pt 4.0pt"> <p class="MsoNormal" style="border:none;padding:0in"></p> <p class="MsoNormal" style="border:none;padding:0in"><b><span lang="DE">GONAL‑f 900 I.E./1,5 ML PEN, AUFKLEBER</span></b></p> </div><p class="MsoNormal"></p><p class="MsoNormal"><i><span lang="DE" style="color:black;background:#D9D9D9">Es wird ein Aufkleber mitgeliefert, auf dem der Patient den Tag der ersten Anwendung notieren kann.</span></i></p><p class="MsoNormal"></p><p class="MsoNormal"><span lang="EN-GB"><img border="0" height="169" src="#image3" width="203"/></span></p><p class="MsoNormal"></p><p class="MsoNormal"></p><span lang="DE" style='font-size:11.0pt;font-family:"Times New Roman",serif'><br clear="all" style="page-break-before:always"/> </span><br clear="all" style="page-break-before:always"/>
			</div>
		</text>
		
    	    
		
</section>
			    
    	    
				
			    
						
		               
<section>
			<title value="MINDESTANGABEN AUF KLEINEN BEHÄLTNISSEN"/>
				<code>
					<coding>
						<system value="http://spor.ema.europa.eu/v1/example-sections"/>
						<code value="${document[n].section[n].subsection[n].typeCode}"/>
						<display value="${document[n].section[n].subsection[n].typeDisplay}"/>
					</coding>
				</code>
		<text>
			<status value="additional"/>
			<div xmlns="http://www.w3.org/1999/xhtml">
		    <div style="border:solid windowtext 1.0pt;padding:1.0pt 4.0pt 1.0pt 4.0pt"> <p class="MsoNormal" style="border:none;padding:0in"></p> <p class="MsoNormal" style="border:none;padding:0in"><b><span lang="DE">GONAL‑f 900 I.E./1,5 ML PEN, ETIKETT DES PENS</span></b></p> </div><p class="MsoNormal"></p><p class="MsoNormal"></p>
			</div>
		</text>
		
    	    

			    
		               
<section>
			<title value="1.       BEZEICHNUNG DES ARZNEIMITTELS SOWIE ART(EN) DER ANWENDUNG"/>
				<code>
					<coding>
						<system value="http://spor.ema.europa.eu/v1/example-sections"/>
						<code value="${document[n].section[n].subsection[n].typeCode}"/>
						<display value="${document[n].section[n].subsection[n].typeDisplay}"/>
					</coding>
				</code>
		<text>
			<status value="additional"/>
			<div xmlns="http://www.w3.org/1999/xhtml">
		    <p class="MsoNormal"></p><p class="MsoNormal"><span lang="DE">GONAL‑f 900 I.E./1,5 ml Injektionslösung im Fertigpen</span></p><p class="MsoNormal"><span lang="DE">Follitropin alfa</span></p><p class="MsoNormal"><span lang="DE">Subkutane Anwendung</span></p><p class="MsoNormal"></p><p class="MsoNormal"></p>
			</div>
		</text>
		
    	    
		
</section>
			    
    	    

			    
		               
<section>
			<title value="2.       HINWEISE ZUR ANWENDUNG"/>
				<code>
					<coding>
						<system value="http://spor.ema.europa.eu/v1/example-sections"/>
						<code value="${document[n].section[n].subsection[n].typeCode}"/>
						<display value="${document[n].section[n].subsection[n].typeDisplay}"/>
					</coding>
				</code>
		<text>
			<status value="additional"/>
			<div xmlns="http://www.w3.org/1999/xhtml">
		    <p class="MsoNormal"></p><p class="MsoNormal"></p>
			</div>
		</text>
		
    	    
		
</section>
			    
    	    

			    
		               
<section>
			<title value="3.       VERFALLDATUM"/>
				<code>
					<coding>
						<system value="http://spor.ema.europa.eu/v1/example-sections"/>
						<code value="${document[n].section[n].subsection[n].typeCode}"/>
						<display value="${document[n].section[n].subsection[n].typeDisplay}"/>
					</coding>
				</code>
		<text>
			<status value="additional"/>
			<div xmlns="http://www.w3.org/1999/xhtml">
		    <p class="MsoNormal"></p><p class="MsoNormal"><span lang="DE">verw. bis</span></p><p class="MsoNormal"><span lang="DE">Haltbarkeit nach erstmaliger Anwendung: 28 Tage</span></p><p class="MsoNormal"></p><p class="MsoNormal"></p>
			</div>
		</text>
		
    	    
		
</section>
			    
    	    

			    
		               
<section>
			<title value="4.       CHARGENBEZEICHNUNG"/>
				<code>
					<coding>
						<system value="http://spor.ema.europa.eu/v1/example-sections"/>
						<code value="${document[n].section[n].subsection[n].typeCode}"/>
						<display value="${document[n].section[n].subsection[n].typeDisplay}"/>
					</coding>
				</code>
		<text>
			<status value="additional"/>
			<div xmlns="http://www.w3.org/1999/xhtml">
		    <p class="MsoNormal"></p><p class="MsoNormal"><span lang="DE">Ch.‑B.</span></p><p class="MsoNormal"></p><p class="MsoNormal"></p>
			</div>
		</text>
		
    	    
		
</section>
			    
    	    

			    
		               
<section>
			<title value="5.       INHALT NACH GEWICHT, VOLUMEN ODER EINHEITEN"/>
				<code>
					<coding>
						<system value="http://spor.ema.europa.eu/v1/example-sections"/>
						<code value="${document[n].section[n].subsection[n].typeCode}"/>
						<display value="${document[n].section[n].subsection[n].typeDisplay}"/>
					</coding>
				</code>
		<text>
			<status value="additional"/>
			<div xmlns="http://www.w3.org/1999/xhtml">
		    <p class="MsoNormal"></p><p class="MsoNormal"><span lang="DE" style="color:black;background:#BFBFBF">900 I.E./1,5 ml</span></p><p class="MsoNormal"></p><p class="MsoNormal"></p>
			</div>
		</text>
		
    	    
		
</section>
			    
    	    

			    
		               
<section>
			<title value="6.       WEITERE ANGABEN"/>
				<code>
					<coding>
						<system value="http://spor.ema.europa.eu/v1/example-sections"/>
						<code value="${document[n].section[n].subsection[n].typeCode}"/>
						<display value="${document[n].section[n].subsection[n].typeDisplay}"/>
					</coding>
				</code>
		<text>
			<status value="additional"/>
			<div xmlns="http://www.w3.org/1999/xhtml">
		    <p class="MsoNormal"></p><p class="MsoNormal"></p><span lang="DE" style='font-size:11.0pt;font-family:"Times New Roman",serif'><br clear="all" style="page-break-before:always"/> </span>
			</div>
		</text>
		
    	    
		
</section>
			    
    	    
		
</section>
			    
    	    
		
	
</section>
							<!-- sections can repeat as necessary -->
						</Composition>
					</resource>
				</entry>
				
			</Bundle>
		</resource>
	</entry>
</Bundle>