<?xml version="1.0" encoding="UTF-8"?>
<!-- This is a template for a FHIR resource, and needs items (marked with "${}") replacing to make a real instance -->
<!-- The resulting instance is a Bundle of Bundles, each of which is a document (having a Composition, and supporting resources) -->
<!-- 2020-02-22 -->
<!-- This is for FHIR version R5 Preview 2 (May 2020) -->
<Bundle xmlns="http://hl7.org/fhir">
	<type value="collection"/>
	<!-- Repeat at this level per document -->
	<entry>
		<fullUrl value="urn:uuid:7fbef345-fddc-433a-a52b-46d809cfcec1"/>
		<!-- Top level of each document is a also FHIR Bundle, of type "document"
		 see http://hl7.org/fhir/documents.html, http://hl7.org/fhir/bundle.html
	 	 All the other resources for this document are within this. -->
		<resource>
            <Bundle>
            	<!-- When PUTing, some servers mandate an id here to match the existing id -->
            	<id value="e39e0a1c-aac5-4c4f-8aa7-7a1fdf82a143"/>
				<!-- document bundles must have an identifier (bdl-9) -->
				<identifier>
					<!-- possibly different identifier types may be needed here -->
					<system value="http://ema.europa.eu/fhir/identifier/documentid"/>
					<value value="${instance.bundle[n].Identifier}"/>
				</identifier>
				<!-- fixed code -->
				<type value="document" /> 
            	<!-- document bundles must have a date (bdl-10) -->
            	<timestamp value="2021-06-07T14:57:53Z"/>
				<!-- a repeating set of entry elements, each with a FHIR resource inside -->
				<entry>
					<!-- fullUrl is mandatory for each entry in document Bundle. It is a random uuid. http://build.fhir.org/bundle.html#bundle-unique -->
					<fullUrl value="urn:uuid:6ff189fb-a747-404a-a693-1966c86b6ac8"/>
					<resource>
						<!-- the first resource must be Composition (bdl-11) -->
						<!-- This is the overall document structure. -->
						<!-- see definition http://hl7.org/fhir/composition.html, and similar for other resources -->
                        <Composition>
                        	<!-- images if requied within html text of this document -->
							
							<contained>
                                <Binary>
                                	<id value="image0"/>
                                	<!-- example format -->
                                	<contentType value="image/png"/>
									<!-- data is base 64 encoded, actual bytes of the image png file -->
                                	<data value=""/>
								</Binary>
							</contained>
							<!-- this exension is necessary per image -->
                <extension url="http://ema.europa.eu/fhir/extension/dummyValidationReference">
                        		<valueReference>
                        			<reference value="#image0"/>
                        		</valueReference>
               </extension>
              
							<contained>
                                <Binary>
                                	<id value="image1"/>
                                	<!-- example format -->
                                	<contentType value="image/png"/>
									<!-- data is base 64 encoded, actual bytes of the image png file -->
                                	<data value=""/>
								</Binary>
							</contained>
							<!-- this exension is necessary per image -->
                <extension url="http://ema.europa.eu/fhir/extension/dummyValidationReference">
                        		<valueReference>
                        			<reference value="#image1"/>
                        		</valueReference>
               </extension>
              
							<contained>
                                <Binary>
                                	<id value="image2"/>
                                	<!-- example format -->
                                	<contentType value="image/png"/>
									<!-- data is base 64 encoded, actual bytes of the image png file -->
                                	<data value=""/>
								</Binary>
							</contained>
							<!-- this exension is necessary per image -->
                <extension url="http://ema.europa.eu/fhir/extension/dummyValidationReference">
                        		<valueReference>
                        			<reference value="#image2"/>
                        		</valueReference>
               </extension>
              
							<contained>
                                <Binary>
                                	<id value="image3"/>
                                	<!-- example format -->
                                	<contentType value="image/png"/>
									<!-- data is base 64 encoded, actual bytes of the image png file -->
                                	<data value=""/>
								</Binary>
							</contained>
							<!-- this exension is necessary per image -->
                <extension url="http://ema.europa.eu/fhir/extension/dummyValidationReference">
                        		<valueReference>
                        			<reference value="#image3"/>
                        		</valueReference>
               </extension>
              
              
              <contained>
                          <Binary>
                            <id value="stylesheet0"/>
                            <!-- example format -->
                            <contentType value="stylesheet/css"/>
                            <!-- data is base 64 encoded, actual bytes of the image png file -->
                            <data value=""/>
                          </Binary>
                        </contained>
                        <!-- this exension is necessary per image -->
                        <extension url="http://ema.europa.eu/fhir/extension/dummyValidationReference">
                          <valueReference>
                            <reference value="#stylesheet0"/>
                          </valueReference>
                        </extension>
              
              <status value="final"/>
							<!-- document type -->
							<type>
								<coding>
									<system value="http://spor.ema.europa.eu/v1/lists/100000155531"/>
									<code value="${document[n].documentTypeCode}"/>
									<display value="${document[n].documentTypeDisplay}"/>
								</coding>
							</type>
							<subject>
								<!-- links to the List resource in this bundle - local url format -->
								<reference value="[]"/> <!-- local url format -->
								<!--reference value="${instance.bundle[n].listUuid}"/--> <!-- uuid url format. Possible alternate format may be neeed -->
							</subject>
                        	<!-- mandatory date of the document -->
                        	<date value="2021-02-01"/>
							<author>
								<identifier>
									<system value="http://spor.ema.europa.eu/v1/locations" />
									<value value="" />
								</identifier>
							</author>
                        	<title value="${document[n].title}"/>
							<relatesTo>
								<code value="appends"/>
								<targetReference>
									<!-- reference to another Composition -->
									<reference value="${document[n].relatesTo}"/>
								</targetReference>
							</relatesTo>
							<!-- main sections of the document, to follow the QRD template -->
	               			
<section>
	
		
			<title value="ZUSAMMENFASSUNG DER MERKMALE DES ARZNEIMITTELS"/>
				<code>
					<coding>
						<system value="http://spor.ema.europa.eu/v1/example-sections"/>
						<code value="${document[n].section[n].subsection[n].typeCode}"/>
						<display value="${document[n].section[n].subsection[n].typeDisplay}"/>
					</coding>
				</code>
		<text>
			<status value="additional"/>
			<div xmlns="http://www.w3.org/1999/xhtml">
		    <p align="center" class="MsoNormal" style="text-align:center;line-height:normal"></p><span lang="DE" style='font-size:11.0pt;font-family:"Times New Roman",serif'><br clear="all" style="page-break-before:always"/> </span><br clear="all" style="page-break-before:always"/>
			</div>
		</text>
		
		
    	    
				
			    
						
		               
<section>
			<title value="1.       BEZEICHNUNG DES ARZNEIMITTELS"/>
				<code>
					<coding>
						<system value="http://spor.ema.europa.eu/v1/example-sections"/>
						<code value="${document[n].section[n].subsection[n].typeCode}"/>
						<display value="${document[n].section[n].subsection[n].typeDisplay}"/>
					</coding>
				</code>
		<text>
			<status value="additional"/>
			<div xmlns="http://www.w3.org/1999/xhtml">
		    <p class="MsoNormal" style="line-height:normal;page-break-after:avoid"></p><p class="MsoNormal" style="line-height:normal"><span lang="DE">ELOCTA 250 I.E. Pulver und Lösungsmittel zur Herstellung einer Injektionslösung</span></p><p class="MsoNormal" style="line-height:normal"></p><p class="MsoNormal" style="line-height:normal"><span lang="DE">ELOCTA 500 I.E. Pulver und Lösungsmittel zur Herstellung einer Injektionslösung</span></p><p class="MsoNormal" style="line-height:normal"></p><p class="MsoNormal" style="line-height:normal"><span lang="DE">ELOCTA 750 I.E. Pulver und Lösungsmittel zur Herstellung einer Injektionslösung</span></p><p class="MsoNormal" style="line-height:normal"></p><p class="MsoNormal" style="line-height:normal"><span lang="DE">ELOCTA 1000 I.E. Pulver und Lösungsmittel zur Herstellung einer Injektionslösung</span></p><p class="MsoNormal" style="line-height:normal"></p><p class="MsoNormal" style="line-height:normal"><span lang="DE">ELOCTA 1500 I.E. Pulver und Lösungsmittel zur Herstellung einer Injektionslösung</span></p><p class="MsoNormal" style="line-height:normal"></p><p class="MsoNormal" style="line-height:normal"><span lang="DE">ELOCTA 2000 I.E. Pulver und Lösungsmittel zur Herstellung einer Injektionslösung</span></p><p class="MsoNormal" style="line-height:normal"></p><p class="MsoNormal" style="line-height:normal"><span lang="DE">ELOCTA 3000 I.E. Pulver und Lösungsmittel zur Herstellung einer Injektionslösung</span></p><p class="MsoNormal" style="line-height:normal"></p><p class="MsoNormal" style="line-height:normal"><span lang="DE">ELOCTA 4000 I.E. Pulver und Lösungsmittel zur Herstellung einer Injektionslösung</span></p><p class="MsoNormal" style="line-height:normal"></p><p class="MsoNormal" style="line-height:normal"></p>
			</div>
		</text>
		
    	    
		
</section>
			    
    	    
				
			    
						
		               
<section>
			<title value="2.       QUALITATIVE UND QUANTITATIVE ZUSAMMENSETZUNG"/>
				<code>
					<coding>
						<system value="http://spor.ema.europa.eu/v1/example-sections"/>
						<code value="${document[n].section[n].subsection[n].typeCode}"/>
						<display value="${document[n].section[n].subsection[n].typeDisplay}"/>
					</coding>
				</code>
		<text>
			<status value="additional"/>
			<div xmlns="http://www.w3.org/1999/xhtml">
		    <p class="MsoNormal" style="line-height:normal;page-break-after:avoid"></p><p class="MsoNormal" style="line-height:normal;page-break-after:avoid"><u><span lang="DE">ELOCTA 250 I.E. Pulver und Lösungsmittel zur Herstellung einer Injektionslösung</span></u></p><p class="MsoNormal" style="line-height:normal"><span lang="DE">Jede Durchstechflasche enthält nominal 250 I.E. Efmoroctocog alfa.</span></p><p class="MsoNormal" style="line-height:normal"><span lang="DE">Nach Rekonstitution enthält ELOCTA ca. 83 I.E./ml rekombinanten humanen Gerinnungsfaktor VIII Efmoroctocog alfa.</span></p><p class="MsoNormal" style="line-height:normal"></p><p class="MsoNormal" style="line-height:normal;page-break-after:avoid"><u><span lang="DE">ELOCTA 500 I.E. Pulver und Lösungsmittel zur Herstellung einer Injektionslösung</span></u></p><p class="MsoNormal" style="line-height:normal"><span lang="DE">Jede Durchstechflasche enthält nominal 500 I.E. Efmoroctocog alfa. Nach Rekonstitution enthält ELOCTA ca. 167 I.E./ml an rekombinantem Efmoroctocog alfa.</span></p><p class="MsoNormal" style="line-height:normal"></p><p class="MsoNormal" style="line-height:normal;page-break-after:avoid"><u><span lang="DE">ELOCTA 750 I.E. Pulver und Lösungsmittel zur Herstellung einer Injektionslösung</span></u></p><p class="MsoNormal" style="line-height:normal"><span lang="DE">Jede Durchstechflasche enthält nominal 750 I.E. Efmoroctocog alfa. Nach Rekonstitution enthält ELOCTA ca. 250 I.E./ml an rekombinantem Efmoroctocog alfa.</span></p><p class="MsoNormal" style="line-height:normal"></p><p class="MsoNormal" style="line-height:normal;page-break-after:avoid"><u><span lang="DE">ELOCTA 1000 I.E. Pulver und Lösungsmittel zur Herstellung einer Injektionslösung</span></u></p><p class="MsoNormal" style="line-height:normal"><span lang="DE">Jede Durchstechflasche enthält nominal 1000 I.E. Efmoroctocog alfa. Nach Rekonstitution enthält ELOCTA ca. 333 I.E./ml an rekombinantem Efmoroctocog alfa.</span></p><p class="MsoNormal" style="line-height:normal"></p><p class="MsoNormal" style="line-height:normal;page-break-after:avoid"><u><span lang="DE">ELOCTA 1500 I.E. Pulver und Lösungsmittel zur Herstellung einer Injektionslösung</span></u></p><p class="MsoNormal" style="line-height:normal"><span lang="DE">Jede Durchstechflasche enthält nominal 1500 I.E. Efmoroctocog alfa. Nach Rekonstitution enthält ELOCTA ca. 500 I.E./ml an rekombinantem Efmoroctocog alfa.</span></p><p class="MsoNormal" style="line-height:normal"></p><p class="MsoNormal" style="line-height:normal;page-break-after:avoid"><u><span lang="DE">ELOCTA 2000 I.E. Pulver und Lösungsmittel zur Herstellung einer Injektionslösung</span></u></p><p class="MsoNormal" style="line-height:normal"><span lang="DE">Jede Durchstechflasche enthält nominal 2000 I.E. Efmoroctocog alfa. Nach Rekonstitution enthält ELOCTA ca. 667 I.E./ml an rekombinantem Efmoroctocog alfa.</span></p><p class="MsoNormal" style="line-height:normal"></p><p class="MsoNormal" style="line-height:normal;page-break-after:avoid"><u><span lang="DE">ELOCTA 3000 I.E. Pulver und Lösungsmittel zur Herstellung einer Injektionslösung</span></u></p><p class="MsoNormal" style="line-height:normal"><span lang="DE">Jede Durchstechflasche enthält nominal 3000 I.E. Efmoroctocog alfa. Nach Rekonstitution enthält ELOCTA ca. 1000 I.E./ml an rekombinantem Efmoroctocog alfa.</span></p><p class="Default"></p><p class="Default" style="page-break-after:avoid"><u><span lang="DE" style="font-size:11.0pt;color:windowtext">ELOCTA 4000 I.E. Pulver und Lösungsmittel zur Herstellung einer Injektionslösung</span></u></p><p class="Default"><span lang="DE" style="font-size:11.0pt;color:windowtext">Jede Durchstechflasche enthält nominal 4000 I.E. Efmoroctocog alfa. Nach Rekonstitution enthält </span><span lang="DE">ELOCTA </span><span lang="DE" style="font-size:11.0pt;color:windowtext">ca. 1333 I.E.</span><span lang="DE" style="font-size:11.0pt">/ml</span><span lang="DE" style="font-size:11.0pt">an rekombinantem </span><span lang="DE" style="font-size:11.0pt;color:windowtext">Efmoroctocog alfa.</span></p><p class="Default"></p><p class="Default"><span lang="DE" style="font-size:11.0pt;color:windowtext">Die Aktivität (Internationale Einheiten, I.E.) wird unter Verwendung des chromogenen Tests gemäß Europäischem Arzneibuch bestimmt. Die spezifische Aktivität von ELOCTA beträgt 4000‑10200 I.E./mg Protein.</span></p><p class="MsoNormal" style="line-height:normal"></p><p class="MsoNormal" style="line-height:normal"><span lang="DE">Efmoroctocog alfa (rekombinanter humaner Gerinnungsfaktor VIII, Fc‑Fusionsprotein [rFVIIIFc]) besteht aus 1.890 Aminosäuren. Es wird mittels rekombinanter DNA‑Technologie in einer humanen embryonalen Nierenzelllinie (HEK‑Zelllinie) ohne Verwendung jeglicher exogener Proteine menschlichen oder tierischen Ursprungs während des Zellkulturprozesses, der Aufreinigung oder endgültigen Formulierung, hergestellt.</span></p><p class="MsoNormal" style="line-height:normal"></p><p class="MsoNormal" style="line-height:normal;page-break-after:avoid;text-autospace: none"><u><span lang="DE">Sonstiger Bestandteil mit bekannter Wirkung</span></u></p><p class="MsoNormal" style="line-height:normal;text-autospace:none"><span lang="DE">0,6 mmol (oder 14 mg) Natrium pro Durchstechflasche.</span></p><p class="MsoNormal" style="line-height:normal"></p><p class="MsoNormal" style="line-height:normal"><span lang="DE">Vollständige Auflistung der sonstigen Bestandteile, siehe Abschnitt 6.1.</span></p><p class="MsoNormal" style="line-height:normal"></p><p class="MsoNormal" style="line-height:normal"></p>
			</div>
		</text>
		
    	    
		
</section>
			    
    	    
				
			    
						
		               
<section>
			<title value="3.       DARREICHUNGSFORM"/>
				<code>
					<coding>
						<system value="http://spor.ema.europa.eu/v1/example-sections"/>
						<code value="${document[n].section[n].subsection[n].typeCode}"/>
						<display value="${document[n].section[n].subsection[n].typeDisplay}"/>
					</coding>
				</code>
		<text>
			<status value="additional"/>
			<div xmlns="http://www.w3.org/1999/xhtml">
		    <p class="MsoNormal" style="line-height:normal;page-break-after:avoid"></p><p class="Default"><span lang="DE" style="font-size:11.0pt;color:windowtext">Pulver und Lösungsmittel zur Herstellung einer Injektionslösung.</span></p><p class="Default"></p><p class="Default"><span lang="DE" style="font-size:11.0pt;color:windowtext">Pulver: lyophilisiertes, weißes bis cremefarbenes Pulver bzw. Kuchen.</span></p><p class="MsoNormal" style="line-height:normal;text-autospace:none"><span lang="DE">Lösungsmittel: Wasser für Injektionszwecke; eine klare, farblose Lösung.</span></p><p class="MsoNormal" style="line-height:normal"></p><p class="MsoNormal" style="margin-left:28.35pt;text-indent:-28.35pt;line-height: normal"></p>
			</div>
		</text>
		
    	    
		
</section>
			    
    	    
				
			    
						
		               
<section>
			<title value="4.       KLINISCHE ANGABEN"/>
				<code>
					<coding>
						<system value="http://spor.ema.europa.eu/v1/example-sections"/>
						<code value="${document[n].section[n].subsection[n].typeCode}"/>
						<display value="${document[n].section[n].subsection[n].typeDisplay}"/>
					</coding>
				</code>
		<text>
			<status value="additional"/>
			<div xmlns="http://www.w3.org/1999/xhtml">
		    <p class="MsoNormal" style="line-height:normal;page-break-after:avoid"></p>
			</div>
		</text>
		
    	    

			    
		               
<section>
			<title value="4.1     Anwendungsgebiete"/>
				<code>
					<coding>
						<system value="http://spor.ema.europa.eu/v1/example-sections"/>
						<code value="${document[n].section[n].subsection[n].typeCode}"/>
						<display value="${document[n].section[n].subsection[n].typeDisplay}"/>
					</coding>
				</code>
		<text>
			<status value="additional"/>
			<div xmlns="http://www.w3.org/1999/xhtml">
		    <p class="MsoNormal" style="line-height:normal;page-break-after:avoid"></p><p class="MsoNormal" style="line-height:normal"><span lang="DE">Behandlung und Prophylaxe von Blutungen bei Patienten mit Hämophilie A (angeborener Faktor-VIII-Mangel).</span></p><p class="MsoNormal" style="line-height:normal"></p><p class="MsoNormal" style="line-height:normal"><span lang="DE">ELOCTA kann bei allen Altersgruppen angewendet werden.</span></p><p class="MsoNormal" style="line-height:normal"></p>
			</div>
		</text>
		
    	    
		
</section>
			    
    	    

			    
		               
<section>
			<title value="4.2     Dosierung und Art der Anwendung"/>
				<code>
					<coding>
						<system value="http://spor.ema.europa.eu/v1/example-sections"/>
						<code value="${document[n].section[n].subsection[n].typeCode}"/>
						<display value="${document[n].section[n].subsection[n].typeDisplay}"/>
					</coding>
				</code>
		<text>
			<status value="additional"/>
			<div xmlns="http://www.w3.org/1999/xhtml">
		    <p class="MsoNormal" style="line-height:normal;page-break-after:avoid"></p><p class="MsoNormal" style="line-height:normal;text-autospace:none"><span lang="DE">Die Behandlung sollte unter der Aufsicht eines Arztes mit Erfahrung in der Behandlung der Hämophilie eingeleitet werden.</span></p><p class="MsoNormal" style="line-height:normal;text-autospace:none"></p><p class="MsoNormal" style="line-height:normal;page-break-after:avoid"><i><u><span lang="DE">Überwachung der Behandlung</span></u></i></p><p class="MsoNormal" style="line-height:normal"><span lang="DE">Während des Behandlungsverlaufs wird eine angemessene Kontrolle der Faktor-VIII-Spiegel (mittels Einstufen-Gerinnungs- oder chromogenen Test) empfohlen, um bei Bedarf die anzuwendende Dosis und die Frequenz der wiederholten Injektionen anzupassen. Einzelne Patienten können unterschiedlich auf Faktor VIII ansprechen, wodurch es zu unterschiedlichen Halbwertszeiten und Wiederfindungsraten kommen kann. Die Dosierung auf Basis des Körpergewichts muss für unter- oder übergewichtigen Patienten unter Umständen angepasst werden. Insbesondere im Fall von großen chirurgischen Eingriffen ist eine genaue gerinnungsanalytische Überwachung (Faktor‑VIII-Aktivität im Plasma) der Substitutionstherapie unbedingt erforderlich.</span></p><p class="MsoNormal" style="line-height:normal"></p><p class="MsoNormal" style="line-height:normal"><span lang="DE">Bei Verwendung eines <i>in vitro</i> Thromboplastinzeit (aPTT)-basierten Einstufen-Gerinnungstests zur Bestimmung der Faktor‑VIII-Aktivität in den Blutproben der Patienten</span><span lang="DE">, können die Ergebnisse für die Faktor‑VIII-Aktivität im Plasma sowohl durch den Typ des aPTT‑Reagenz als auch den im Test verwendeten Referenzstandard signifikant beeinflusst werden. Auch können signifikante Unterschiede zwischen den Testergebnissen auftreten, die mittels eines aPTT-basierten Einstufen-Gerinnungstests und eines chromogenen Tests gemäß Europäischem Arzneibuch erhalten wurden. Dies ist insbesondere dann von Bedeutung, wenn das Labor gewechselt und/oder im Test ein anderes Reagenz eingesetzt wird.</span></p><p class="MsoNormal" style="line-height:normal;text-autospace:none"></p><p class="MsoNormal" style="line-height:normal;page-break-after:avoid"><u><span lang="DE">Dosierung</span></u></p><p class="MsoNormal" style="line-height:normal;text-autospace:none"><span lang="DE">Die Dosierung und Dauer der Substitutionstherapie richten sich nach dem Schweregrad des Faktor‑VIII-Mangels, Ort und Ausmaß der Blutung und nach dem klinischen Zustand des Patienten.</span></p><p class="MsoNormal" style="line-height:normal"></p><p class="MsoNormal" style="line-height:normal;text-autospace:none"><span lang="DE">Die Anzahl der verabreichten rekombinanten Faktor‑VIII‑Fc-Einheiten wird in I.E. angegeben, bezogen auf den derzeitigen WHO‑Standard für Faktor‑VIII-Produkte. Die Faktor‑VIII-Aktivität im Plasma wird entweder als Prozentsatz (bezogen auf normale menschliche Plasmaspiegel) oder in I.E. (bezogen auf den Internationalen Standard für Faktor VIII im Plasma) angegeben.</span></p><p class="MsoNormal" style="line-height:normal;text-autospace:none"></p><p class="MsoNormal" style="line-height:normal;text-autospace:none"><span lang="DE">Eine I.E. der Aktivität des rekombinanten Faktor‑VIII‑Fc-Proteins entspricht dem Faktor‑VIII-Gehalt von 1 ml humanem Normalplasma.</span></p><p class="MsoNormal" style="line-height:normal;text-autospace:none"></p><p class="MsoNormal" style="margin-left:17.85pt;text-indent:-17.85pt;line-height: normal;page-break-after:avoid;text-autospace:none"><i><u><span lang="DE">Bedarfsbehandlung</span></u></i></p><p class="MsoNormal" style="line-height:normal;text-autospace:none"><span lang="DE">Die Berechnung der benötigten Dosis an rekombinantem Faktor‑VIII‑Fc basiert auf dem </span><span lang="DE">empirischen Ergebnis</span><span lang="DE">, dass 1 I.E. Faktor VIII pro kg Körpergewicht die Faktor‑VIII-Aktivität im Plasma um 2 I.E./dl erhöht. Die benötigte Dosis wird nach folgender Formel berechnet:</span></p><p class="MsoNormal" style="line-height:normal;text-autospace:none"></p><p class="MsoNormal" style="line-height:normal;text-autospace:none"><span lang="DE">Erforderliche Einheiten = Körpergewicht (kg) × erwünschter Faktor‑VIII-Anstieg (%) (I.E./dl) × 0,5 (I.E./kg pro I.E./dl)</span></p><p class="MsoNormal" style="line-height:normal;text-autospace:none"></p><p class="MsoNormal" style="line-height:normal;text-autospace:none"><span lang="DE">Die Dosierung und Häufigkeit der Anwendung sollten sich stets an der klinischen Wirksamkeit im Einzelfall orientieren.</span></p><p class="MsoNormal" style="line-height:normal"></p><p class="MsoNormal" style="line-height:normal"><span lang="DE">Bei den folgenden Blutungsereignissen sollte die Faktor‑VIII-Aktivität (in % des Normbereichs oder in I.E./dl) während des entsprechenden Zeitraums nicht unter den angegebenen Plasmaspiegel abfallen. Tabelle 1 dient als Empfehlung für die Dosierung bei Blutungsepisoden und chirurgischen Eingriffen:</span></p><p class="MsoNormal" style="line-height:normal"></p><p class="MsoNormal" style="line-height:normal;page-break-after:avoid;text-autospace: none"><b><span lang="DE">Tabelle 1: Leitfaden für die Dosierung von ELOCTA bei der Behandlung von Blutungsepisoden und chirurgischen Eingriffen</span></b></p><p class="MsoNormal" style="line-height:normal;page-break-after:avoid"></p><table border="0" cellpadding="0" cellspacing="0" class="MsoNormalTable" style="margin-left:5.4pt;border-collapse:collapse"> <thead> <tr style="height:6.25pt"> <td style="width:141.75pt;border:none;border-bottom:    solid windowtext 1.0pt;padding:0in 5.4pt 0in 5.4pt;height:6.25pt" valign="top" width="189"> <p class="MsoNormal" style="line-height:normal;page-break-after:avoid"><b><span lang="DE">Schweregrad der Blutung / Art des chirurgischen Eingriffs</span></b></p> </td> <td style="width:120.5pt;border:none;border-bottom:    solid windowtext 1.0pt;padding:0in 5.4pt 0in 5.4pt;height:6.25pt" valign="top" width="161"> <p class="MsoNormal" style="line-height:normal;page-break-after:avoid"><b><span lang="DE">Erforderlicher Faktor-VIII-Spiegel (%) (I.E./dl)</span></b></p> </td> <td style="width:219.7pt;border:none;border-bottom:    solid windowtext 1.0pt;padding:0in 5.4pt 0in 5.4pt;height:6.25pt" valign="top" width="293"> <p class="MsoNormal" style="line-height:normal;page-break-after:avoid"><b><span lang="DE">Häufigkeit der Anwendung (Stunden)/ Dauer der Behandlung (Tage)</span></b></p> </td> </tr> </thead> <tr style="height:14.85pt"> <td style="width:141.75pt;border:none;padding:0in 5.4pt 0in 5.4pt;   height:14.85pt" valign="top" width="189"> <p class="MsoNormal" style="line-height:normal;page-break-after:avoid"><u><span lang="DE">Blutung</span></u></p> </td> <td style="width:120.5pt;border:none;padding:0in 5.4pt 0in 5.4pt;   height:14.85pt" valign="top" width="161"> <p class="MsoNormal" style="line-height:normal;page-break-after:avoid"></p> </td> <td style="width:219.7pt;border:none;padding:0in 5.4pt 0in 5.4pt;   height:14.85pt" valign="top" width="293"> <p class="MsoNormal" style="line-height:normal;page-break-after:avoid"></p> </td> </tr> <tr> <td style="width:141.75pt;padding:0in 5.4pt 0in 5.4pt" valign="top" width="189"> <p class="MsoNormal" style="line-height:normal;page-break-after:avoid"><span lang="DE">Beginnende Hämarthrosen, Muskelblutungen oder Blutungen im   Mundbereich</span></p> </td> <td style="width:120.5pt;padding:0in 5.4pt 0in 5.4pt" valign="top" width="161"> <p class="MsoNormal" style="line-height:normal;page-break-after:avoid"><span lang="DE">20 ‑ 40</span></p> </td> <td style="width:219.7pt;padding:0in 5.4pt 0in 5.4pt" valign="top" width="293"> <p class="MsoNormal" style="line-height:normal"><span lang="DE">Wiederholung der   Injektion alle 12 bis 24 Stunden, für mindestens einen Tag, bis die   Blutung (erkennbar durch Schmerzen) gestillt oder eine Wundheilung eingetreten   ist.<sup>1</sup></span></p> <p class="MsoNormal" style="line-height:normal;page-break-after:avoid"></p> </td> </tr> <tr> <td style="width:141.75pt;padding:0in 5.4pt 0in 5.4pt" valign="top" width="189"> <p class="MsoNormal" style="line-height:normal;page-break-after:avoid"><span lang="DE">Umfangreichere Hämarthrosen, Muskelblutungen oder Hämatome</span></p> </td> <td style="width:120.5pt;padding:0in 5.4pt 0in 5.4pt" valign="top" width="161"> <p class="MsoNormal" style="line-height:normal;page-break-after:avoid"><span lang="DE">30 ‑ 60</span></p> </td> <td style="width:219.7pt;padding:0in 5.4pt 0in 5.4pt" valign="top" width="293"> <p class="MsoNormal" style="line-height:normal"><span lang="DE">Wiederholung der   Injektion alle 12 bis 24 Stunden über 3‑4 Tage oder länger bis   zur Beseitigung des Schmerzzustandes und der akuten Beeinträchtigung.<sup>1</sup></span></p> <p class="MsoNormal" style="line-height:normal;page-break-after:avoid"></p> </td> </tr> <tr> <td style="width:141.75pt;border:none;border-bottom:   solid windowtext 1.0pt;padding:0in 5.4pt 0in 5.4pt" valign="top" width="189"> <p class="MsoNormal" style="line-height:normal;page-break-after:avoid"><span lang="DE">Lebensbedrohliche Blutungen</span></p> </td> <td style="width:120.5pt;border:none;border-bottom:solid windowtext 1.0pt;   padding:0in 5.4pt 0in 5.4pt" valign="top" width="161"> <p class="MsoNormal" style="line-height:normal;page-break-after:avoid"><span lang="DE">60 ‑ 100</span></p> </td> <td style="width:219.7pt;border:none;border-bottom:solid windowtext 1.0pt;   padding:0in 5.4pt 0in 5.4pt" valign="top" width="293"> <p class="MsoNormal" style="line-height:normal"><span lang="DE">Wiederholung der   Injektion alle 8 bis 24 Stunden, bis die Gefährdung beseitigt ist.</span></p> <p class="MsoNormal" style="line-height:normal;page-break-after:avoid"></p> </td> </tr> <tr> <td style="width:141.75pt;border:none;padding:0in 5.4pt 0in 5.4pt" valign="top" width="189"> <p class="MsoNormal" style="line-height:normal;page-break-after:avoid"><u><span lang="DE">Chirurgischer Eingriff</span></u></p> </td> <td style="width:120.5pt;border:none;padding:0in 5.4pt 0in 5.4pt" valign="top" width="161"> <p class="MsoNormal" style="line-height:normal;page-break-after:avoid"></p> </td> <td style="width:219.7pt;border:none;padding:0in 5.4pt 0in 5.4pt" valign="top" width="293"> <p class="MsoNormal" style="line-height:normal;page-break-after:avoid"></p> </td> </tr> <tr> <td style="width:141.75pt;border:none;border-bottom:   solid windowtext 1.0pt;padding:0in 5.4pt 0in 5.4pt" valign="top" width="189"> <p class="MsoNormal" style="line-height:normal;page-break-after:avoid"><span lang="DE">Kleinere Eingriffe einschließlich Zahnextraktion</span></p> </td> <td style="width:120.5pt;border:none;border-bottom:solid windowtext 1.0pt;   padding:0in 5.4pt 0in 5.4pt" valign="top" width="161"> <p class="MsoNormal" style="line-height:normal;page-break-after:avoid"><span lang="DE">30 ‑ 60</span></p> </td> <td style="width:219.7pt;border:none;border-bottom:solid windowtext 1.0pt;   padding:0in 5.4pt 0in 5.4pt" valign="top" width="293"> <p class="MsoNormal" style="line-height:normal"><span lang="DE">Wiederholung der   Injektion alle 24 Stunden, für mindestens einen Tag, bis eine Heilung   eintritt.</span></p> <p class="MsoNormal" style="line-height:normal;page-break-after:avoid"></p> </td> </tr> <tr> <td style="width:141.75pt;border:none;border-bottom:   solid windowtext 1.0pt;padding:0in 5.4pt 0in 5.4pt" valign="top" width="189"> <p class="MsoNormal" style="line-height:normal;page-break-after:avoid"><u><span lang="DE">Größere Eingriffe</span></u></p> </td> <td style="width:120.5pt;border:none;border-bottom:solid windowtext 1.0pt;   padding:0in 5.4pt 0in 5.4pt" valign="top" width="161"> <p class="MsoNormal" style="line-height:normal;page-break-after:avoid"><span lang="DE">80 ‑ 100</span></p> <p class="MsoNormal" style="line-height:normal;page-break-after:avoid"><span lang="DE">(prä- und postoperativ)</span></p> </td> <td style="width:219.7pt;border:none;border-bottom:solid windowtext 1.0pt;   padding:0in 5.4pt 0in 5.4pt" valign="top" width="293"> <p class="MsoNormal" style="line-height:normal"><span lang="DE">Wiederholung der   Injektion bei Bedarf alle 8 bis 24 Stunden bis zur ausreichenden   Wundheilung, anschließend Weiterbehandlung für mind. weitere 7 Tage zur Aufrechterhaltung   einer Faktor‑VIII-Aktivität von 30 % bis 60 % (I.E./dl).</span></p> <p class="MsoNormal" style="line-height:normal"></p> </td> </tr> </table><p class="MsoNormal" style="line-height:normal"><sup><span lang="DE" style="font-size:10.0pt">1 </span></sup><span lang="DE" style="font-size:10.0pt">Bei einigen Patienten und unter manchen Umständen kann das Dosierungsintervall auf bis zu 36 Stunden verlängert werden. Für die pharmakokinetischen Daten siehe Abschnitt 5.2.</span></p><p class="MsoNormal" style="line-height:normal"><u><span lang="DE"></span></u></p><p class="Default" style="page-break-after:avoid"><i><u><span lang="DE" style="font-size:11.0pt;color:windowtext">Prophylaxe</span></u></i></p><p class="MsoNormal" style="line-height:normal"><span lang="DE">Bei der Langzeitprophylaxe beträgt die empfohlene Dosis 50 I.E. Faktor VIII pro kg Körpergewicht alle 3 bis 5 Tage. Die Dosis kann je nach Ansprechen des Patienten im Bereich zwischen 25 und 65 I.E./kg angepasst werden (siehe Abschnitt 5.1 und 5.2).</span></p><p class="MsoNormal" style="line-height:normal"><span lang="DE">In einigen Fällen, besonders bei jungen Patienten, können kürzere Dosierungsintervalle oder höhere Dosen erforderlich sein.</span></p><p class="MsoNormal" style="line-height:normal"></p><p class="MsoNormal" style="line-height:normal;page-break-after:avoid;text-autospace: none"><i><u><span lang="DE">Ältere Patienten</span></u></i></p><p class="MsoNormal" style="line-height:normal"><span lang="DE">Für Patienten ≥ 65 Jahren liegen nur begrenzte Erfahrungen vor.</span></p><p class="MsoNormal" style="line-height:normal"></p><p class="MsoNormal" style="line-height:normal;page-break-after:avoid;text-autospace: none"><i><u><span lang="DE">Kinder und Jugendliche</span></u></i></p><p class="MsoNormal" style="line-height:normal"><span lang="DE">Bei Kindern unter 12 Jahren können häufigere Gaben oder höhere Dosen notwendig sein (siehe Abschnitt 5.1). Für Jugendliche ab12 Jahren gelten die gleichen Dosierungsempfehlungen wie für Erwachsene.</span></p><p class="MsoNormal" style="line-height:normal"><u><span lang="DE"></span></u></p><p class="MsoNormal" style="line-height:normal;page-break-after:avoid;text-autospace: none"><u><span lang="DE">Art der Anwendung</span></u></p><p class="MsoNormal" style="line-height:normal"><span lang="DE">ELOCTA ist zur intravenösen Anwendung bestimmt.</span></p><p class="Default"></p><p class="Default"><span lang="DE" style="font-size:11.0pt;color:windowtext">ELOCTA wird über mehrere Minuten intravenös injiziert. Die Infusionsrate sollte sich nach dem Befinden des Patienten richten und 10 ml/min nicht überschreiten.</span></p><p class="MsoNormal" style="line-height:normal;text-autospace:none"></p><p class="MsoNormal" style="line-height:normal;text-autospace:none"><span lang="DE">Hinweise zur Rekonstitution des Arzneimittels vor der Anwendung, siehe Abschnitt 6.6.</span></p><p class="MsoNormal" style="line-height:normal"></p>
			</div>
		</text>
		
    	    
		
</section>
			    
    	    

			    
		               
<section>
			<title value="4.3     Gegenanzeigen"/>
				<code>
					<coding>
						<system value="http://spor.ema.europa.eu/v1/example-sections"/>
						<code value="${document[n].section[n].subsection[n].typeCode}"/>
						<display value="${document[n].section[n].subsection[n].typeDisplay}"/>
					</coding>
				</code>
		<text>
			<status value="additional"/>
			<div xmlns="http://www.w3.org/1999/xhtml">
		    <p class="MsoNormal" style="line-height:normal;page-break-after:avoid;text-autospace: none"></p><p class="MsoNormal" style="line-height:normal"><span lang="DE">Überempfindlichkeit gegen den Wirkstoff oder einen der in Abschnitt 6.1 genannten sonstigen Bestandteile.</span></p><p class="MsoNormal" style="line-height:normal"></p>
			</div>
		</text>
		
    	    
		
</section>
			    
    	    

			    
		               
<section>
			<title value="4.4     Besondere Warnhinweise und Vorsichtsmaßnahmen für die Anwendung"/>
				<code>
					<coding>
						<system value="http://spor.ema.europa.eu/v1/example-sections"/>
						<code value="${document[n].section[n].subsection[n].typeCode}"/>
						<display value="${document[n].section[n].subsection[n].typeDisplay}"/>
					</coding>
				</code>
		<text>
			<status value="additional"/>
			<div xmlns="http://www.w3.org/1999/xhtml">
		    <p class="MsoNormal" style="margin-left:28.35pt;text-indent:-28.35pt;line-height: normal;page-break-after:avoid;text-autospace:none"></p><p class="MsoNormal" style="margin-left:28.35pt;text-indent:-28.35pt;line-height: normal;page-break-after:avoid;text-autospace:none"><u><span lang="DE">Überempfindlichkeit</span></u></p><p class="MsoNormal" style="line-height:normal"><span lang="DE">Allergische Überempfindlichkeitsreaktionen auf ELOCTA sind möglich. Falls Symptome einer Überempfindlichkeit auftreten, sollte den Patienten angewiesen werden, die Anwendung des Arzneimittels sofort zu unterbrechen und ihren Arzt aufzusuchen.</span></p><p class="MsoNormal" style="line-height:normal"><span lang="DE">Die Patienten sollten über Anzeichen von Überempfindlichkeitsreaktionen einschließlich Nesselsucht, generalisierte Urtikaria, Engegefühl im Brustbereich, Giemen, Hypotonie und Anaphylaxie aufgeklärt werden.</span></p><p class="MsoNormal" style="line-height:normal"></p><p class="MsoNormal" style="line-height:normal"><span lang="DE">Im Falle eines Schocks sollte eine Schocktherapie entsprechend des medizinischen Standards durchgeführt werden.</span></p><p class="MsoNormal" style="line-height:normal"><u><span lang="DE"></span></u></p><p class="MsoNormal" style="line-height:normal;page-break-after:avoid"><u><span lang="DE">Inhibitoren</span></u></p><p class="MsoNormal" style="line-height:normal"><span lang="DE">Die Bildung neutralisierender Antikörper (Inhibitoren) gegen Faktor VIII ist eine bekannte Komplikation bei der Behandlung von Patienten mit Hämophilie A. Diese Inhibitoren sind im Allgemeinen gegen die prokoagulatorische Aktivität des Faktor VIII gerichtete IgG‑Immunglobuline, die in Bethesda‑Einheiten (B.E.) pro ml Plasma mittels modifizierten Assays quantifiziert werden. Das Risiko der Bildung von Inhibitoren korreliert mit </span><span lang="DE">dem Schweregrad der Erkrankung sowie </span><span lang="DE">der Exposition gegenüber Faktor VIII. Dabei ist das Risiko in den ersten 50 Expositionstagen am höchsten, bleibt aber, auch wenn es nur gelegentlich auftritt, lebenslang bestehen.</span></p><p class="MsoNormal" style="line-height:normal"></p><p class="MsoNormal" style="line-height:normal"><span lang="DE">Die klinische Relevanz der Inhibitorentwicklung ist abhängig vom Titer des Inhibitors, wobei niedrigtitrige Inhibitoren ein geringeres Risiko für ein ungenügendes klinisches Ansprechen darstellen als solche mit hohem Titer.</span></p><p class="MsoNormal" style="line-height:normal"></p><p class="MsoNormal" style="line-height:normal"><span lang="DE">Im Allgemeinen sollten alle Patienten, die mit Gerinnungsfaktor‑VIII-Produkten behandelt werden, sorgfältig mit Hilfe geeigneter klinischer Beobachtungen und Laboruntersuchungen auf die Entwicklung von Inhibitoren überwacht werden. </span><span lang="DE">Wenn die erwarteten Plasmaspiegel der Faktor‑VIII-Aktivität nicht erreicht werden oder die Blutung mit einer angemessenen Dosis nicht kontrolliert werden kann, soll ein Test zum Nachweis von Faktor‑VIII-Inhibitoren durchgeführt werden. Bei Patienten mit hohen Inhibitorspiegeln kann die Faktor‑VIII-Behandlung unwirksam sein und es sollten andere Behandlungsmöglichkeiten erwogen werden. Die Behandlung solcher Patienten soll von Ärzten durchgeführt werden, die Erfahrung mit der Behandlung von Hämophilie und Faktor‑VIII-Inhibitoren haben.</span></p><p class="MsoNormal" style="line-height:normal"></p><p class="MsoNormal" style="line-height:normal;page-break-after:avoid"><u><span lang="DE">Kardiovaskuläre Ereignisse</span></u></p><p class="MsoNormal" style="line-height:normal"><span lang="DE">Bei Patienten mit vorbestehenden kardiovaskulären Risikofaktoren kann eine Substitutionstherapie mit FVIII das kardiovaskuläre Risiko erhöhen.</span></p><p class="MsoNormal" style="line-height:normal"></p><p class="MsoNormal" style="line-height:normal;page-break-after:avoid"><u><span lang="DE">Katheter-assoziierte Komplikationen</span></u></p><p class="MsoNormal" style="line-height:normal"><span lang="DE">Wenn ein zentraler Venenkatheter (ZVK) erforderlich ist, sollte das Risiko von Katheter-assoziierten Komplikationen einschließlich lokaler Infektionen, Bakteriämie und Katheter-assoziierten Thrombosen berücksichtigt werden.</span></p><p class="MsoNormal" style="line-height:normal"></p><p class="MsoNormal" style="line-height:normal;page-break-after:avoid"><u><span lang="DE">Rückverfolgbarkeit</span></u></p><p class="MsoNormal" style="line-height:normal"><span lang="DE">Um die Rückverfolgbarkeit biologischer Arzneimittel zu verbessern, müssen die Bezeichnung des Arzneimittels und die Chargenbezeichnung des angewendeten Arzneimittels eindeutig dokumentiert werden.</span></p><p class="MsoNormal" style="line-height:normal"></p><p class="Default" style="page-break-after:avoid"><u><span lang="DE" style="font-size:11.0pt;color:windowtext">Kinder und Jugendliche</span></u></p><p class="MsoNormal" style="line-height:normal"><span lang="DE">Die aufgeführten Warnhinweise und Vorsichtsmaßnahmen gelten sowohl für Erwachsene als auch für Kinder und Jugendliche.</span></p><p class="MsoNormal" style="line-height:normal"></p><p class="MsoNormal" style="line-height:normal;page-break-after:avoid;text-autospace: none"><u><span lang="DE">Hinweis zu den sonstigen Bestandteilen</span></u></p><p class="MsoNormal" style="line-height:normal"><span lang="DE">Dieses Arzneimittel enthält weniger als 1 mmol Natrium (23 mg) pro Durchstechflasche, d. h. es ist nahezu „natriumfrei“.</span></p><p class="MsoNormal" style="line-height:normal"><span lang="DE">Je nach Körpergewicht und Dosierung könnte der Patient jedoch mehr als eine Durchstechflasche erhalten (Informationen zum Inhalt pro Durchstechflasche siehe Abschnitt 2). Dies ist zu berücksichtigen bei Patienten, die eine natriumarme Diät einhalten sollen.</span></p><p class="MsoNormal" style="line-height:normal"></p>
			</div>
		</text>
		
    	    
		
</section>
			    
    	    

			    
		               
<section>
			<title value="4.5     Wechselwirkungen mit anderen Arzneimitteln und sonstige Wechselwirkungen"/>
				<code>
					<coding>
						<system value="http://spor.ema.europa.eu/v1/example-sections"/>
						<code value="${document[n].section[n].subsection[n].typeCode}"/>
						<display value="${document[n].section[n].subsection[n].typeDisplay}"/>
					</coding>
				</code>
		<text>
			<status value="additional"/>
			<div xmlns="http://www.w3.org/1999/xhtml">
		    <p class="MsoNormal" style="line-height:normal;page-break-after:avoid"></p><p class="MsoNormal" style="line-height:normal"><span lang="DE">Es sind keine Wechselwirkungen von humanem Gerinnungsfaktor VIII (rDNA) mit anderen Arzneimitteln berichtet worden. Es wurden keine Studien zur Erfassung von Wechselwirkungen durchgeführt.</span></p><p class="MsoNormal" style="line-height:normal"></p>
			</div>
		</text>
		
    	    
		
</section>
			    
    	    

			    
		               
<section>
			<title value="4.6     Fertilität, Schwangerschaft und Stillzeit"/>
				<code>
					<coding>
						<system value="http://spor.ema.europa.eu/v1/example-sections"/>
						<code value="${document[n].section[n].subsection[n].typeCode}"/>
						<display value="${document[n].section[n].subsection[n].typeDisplay}"/>
					</coding>
				</code>
		<text>
			<status value="additional"/>
			<div xmlns="http://www.w3.org/1999/xhtml">
		    <p class="MsoNormal" style="line-height:normal;page-break-after:avoid"></p><p class="Default"><span lang="DE" style="font-size:11.0pt;color:windowtext">Reproduktionsstudien am Tier wurden mit Faktor VIII nicht durchgeführt. In einer Studie mit ELOCTA wurde die Plazentagängigkeit bei Mäusen untersucht (siehe Abschnitt 5.3). Aufgrund des seltenen Vorkommens der Hämophilie A bei Frauen liegen keine Erfahrungen über die Anwendung von Faktor VIII während der Schwangerschaft und Stillzeit vor. Daher sollte Faktor VIII in der Schwangerschaft und Stillzeit nur bei eindeutiger Indikationsstellung angewendet werden.</span></p><p class="MsoNormal" style="line-height:normal"></p>
			</div>
		</text>
		
    	    
		
</section>
			    
    	    

			    
		               
<section>
			<title value="4.7     Auswirkungen auf die Verkehrstüchtigkeit und die Fähigkeit zum Bedienen von Maschinen"/>
				<code>
					<coding>
						<system value="http://spor.ema.europa.eu/v1/example-sections"/>
						<code value="${document[n].section[n].subsection[n].typeCode}"/>
						<display value="${document[n].section[n].subsection[n].typeDisplay}"/>
					</coding>
				</code>
		<text>
			<status value="additional"/>
			<div xmlns="http://www.w3.org/1999/xhtml">
		    <p class="MsoNormal" style="line-height:normal;page-break-after:avoid"></p><p class="MsoNormal" style="line-height:normal"><span lang="DE">ELOCTA hat keinen Einfluss auf die Verkehrstüchtigkeit und die Fähigkeit zum Bedienen von Maschinen.</span></p><p class="MsoNormal" style="line-height:normal"></p>
			</div>
		</text>
		
    	    
		
</section>
			    
    	    

			    
		               
<section>
			<title value="4.8     Nebenwirkungen"/>
				<code>
					<coding>
						<system value="http://spor.ema.europa.eu/v1/example-sections"/>
						<code value="${document[n].section[n].subsection[n].typeCode}"/>
						<display value="${document[n].section[n].subsection[n].typeDisplay}"/>
					</coding>
				</code>
		<text>
			<status value="additional"/>
			<div xmlns="http://www.w3.org/1999/xhtml">
		    <p class="Default" style="page-break-after:avoid;text-autospace:ideograph-numeric ideograph-other"><u><span lang="DE" style="font-size:11.0pt;color:windowtext"></span></u></p><p class="Default" style="page-break-after:avoid;text-autospace:ideograph-numeric ideograph-other"><u><span lang="DE" style="font-size:11.0pt;color:windowtext">Zusammenfassung des Sicherheitsprofils</span></u></p><p class="MsoNormal" style="line-height:normal;text-autospace:none"><span lang="DE">Selten wurden Überempfindlichkeit oder allergische Reaktionen (wie </span><span lang="DE">Angioödem, brennendes und stechendes Gefühl an der Infusionsstelle, Schüttelfrost, Hitzegefühl, generalisierte Urtikaria, Kopfschmerzen, Nesselsucht, Hypotonie, Lethargie, Übelkeit, Unruhe, Tachykardie, </span><span lang="DE">Engegefühl im Brustbereich, Kribbeln, Erbrechen, Giemen) </span><span lang="DE">beobachtetet, die sich möglicherweise </span><span lang="DE">in einigen Fällen zu einer schweren Anaphylaxie (einschließlich Schock) entwickeln können.</span></p><p class="MsoNormal" style="line-height:normal;text-autospace:none"></p><p class="MsoNormal" style="line-height:normal;text-autospace:none"><span lang="DE">Bei Patienten mit Hämophilie A, die mit Faktor VIII, einschließlich ELOCTA, behandelt werden, können sich neutralisierende Antikörper (Inhibitoren) entwickeln</span><span lang="DE">. Wenn solche Inhibitoren auftreten, manifestiert sich der Zustand als unzureichendes klinisches Ansprechen. In solchen Fällen wird empfohlen, ein spezialisiertes Hämophilie-Zentrum aufzusuchen.</span></p><p class="MsoNormal" style="line-height:normal;text-autospace:none"></p><p class="Default" style="page-break-after:avoid;text-autospace:ideograph-numeric ideograph-other"><u><span lang="DE" style="font-size:11.0pt;color:windowtext">Tabellarische Auflistung der Nebenwirkungen</span></u></p><p class="Default"><span lang="DE" style="font-size:11.0pt;color:windowtext">In der Tabelle 2 sind die Nebenwirkungen gemäß der MedDRA-Systemorganklassifikation (SOC und Preferred Term Level) aufgeführt. Die Häufigkeiten der Nebenwirkungen basieren auf klinischen Studien mit insgesamt 379 Patienten mit schwerer Hämophilie A, von denen 276 vorbehandelte Patienten (PTPs) und 103 zuvor unbehandelte Patienten (PUPs) waren. Weitere Informationen zu den klinischen Studien sind in Abschnitt 5.1 zu finden.</span></p><p class="Default"></p><p class="Default"><span lang="DE" style="font-size:11.0pt;color:windowtext">Die Häufigkeiten wurden entsprechend der nachfolgenden Konvention beurteilt: sehr häufig (≥ 1/10); häufig (≥ 1/100, &lt; 1/10); gelegentlich (≥ 1/1.000, &lt; 1/100); selten (≥ 1/10.000, &lt; 1/1.000); sehr selten (&lt; 1/10.000); nicht bekannt (Häufigkeit auf Grundlage der verfügbaren Daten nicht abschätzbar).</span></p><p class="Default"></p><p class="MsoNormal" style="line-height:normal;text-autospace:none"><span lang="DE">Innerhalb jeder Häufigkeitsgruppe werden die Nebenwirkungen nach abnehmendem Schweregrad angegeben.</span></p><p class="MsoNormal" style="line-height:normal"></p><p class="MsoNormal" style="line-height:normal;page-break-after:avoid"><b><span lang="DE">Tabelle 2: Nebenwirkungen von ELOCTA in klinischen Studien</span></b><sup><span lang="DE">1</span></sup></p><table border="0" cellpadding="0" cellspacing="0" class="MsoNormalTable" style="width:100.0%;border-collapse:collapse" width="100%"> <tr> <td style="width:49.0%;border:solid black 1.0pt;   padding:.75pt 5.4pt 0in 5.4pt" valign="top" width="49%"> <p class="MsoNormal" style="line-height:normal;page-break-after:avoid"><b><span lang="DE">Systemorganklasse gemäß MedDRA</span></b></p> </td> <td style="width:27.58%;border:solid black 1.0pt;   border-left:none;padding:.75pt 5.4pt 0in 5.4pt" valign="top" width="27%"> <p class="MsoNormal" style="line-height:normal;page-break-after:avoid"><b><span lang="DE">Nebenwirkungen</span></b></p> </td> <td style="width:23.42%;border:solid black 1.0pt;   border-left:none;padding:0in 0in 0in 0in" valign="top" width="23%"> <p class="MsoNormal" style="margin-left:5.65pt;line-height:normal;page-break-after:   avoid"><b><span lang="DE">Häufigkeitskategorie<sup>1</sup></span></b></p> </td> </tr> <tr> <td style="width:49.0%;border:solid black 1.0pt;   border-top:none;padding:.75pt 5.4pt 0in 5.4pt" valign="top" width="49%"> <p class="MsoNormal" style="line-height:normal;page-break-after:avoid"><span lang="DE">Erkrankungen des Blutes und des Lymphsystems</span></p> </td> <td style="width:27.58%;border-top:none;border-left:   none;border-bottom:solid windowtext 1.0pt;border-right:solid black 1.0pt;   padding:.75pt 5.4pt 0in 5.4pt" valign="top" width="27%"> <p class="MsoNormal" style="line-height:normal;page-break-after:avoid"><span lang="DE">Faktor‑VIII‑Inhibition</span></p> </td> <td style="width:23.42%;border-top:none;border-left:   none;border-bottom:solid windowtext 1.0pt;border-right:solid black 1.0pt;   padding:0in 0in 0in 0in" valign="top" width="23%"> <p class="MsoNormal" style="margin-left:5.65pt;line-height:normal;page-break-after:   avoid"><span lang="DE">Gelegentlich (PTPs)<sup>2</sup></span></p> <p class="MsoNormal" style="margin-left:5.65pt;line-height:normal;page-break-after:   avoid"><span lang="DE">Sehr häufig (PUPs)<sup>2</sup></span></p> </td> </tr> <tr> <td rowspan="3" style="width:49.0%;border-top:none;   border-left:solid black 1.0pt;border-bottom:solid black 1.0pt;border-right:   solid windowtext 1.0pt;padding:.75pt 5.4pt 0in 5.4pt" valign="top" width="49%"> <p class="MsoNormal" style="line-height:normal;page-break-after:avoid"><span lang="DE">Erkrankungen des Nervensystems</span></p> </td> <td style="width:27.58%;border-top:none;border-left:   none;border-bottom:solid windowtext 1.0pt;border-right:solid windowtext 1.0pt;   padding:.75pt 5.4pt 0in 5.4pt" valign="top" width="27%"> <p class="MsoNormal" style="line-height:normal;page-break-after:avoid"><span lang="DE">Kopfschmerzen</span></p> </td> <td style="width:23.42%;border-top:none;border-left:   none;border-bottom:solid windowtext 1.0pt;border-right:solid windowtext 1.0pt;   padding:0in 0in 0in 0in" valign="top" width="23%"> <p class="MsoNormal" style="margin-left:5.65pt;line-height:normal;page-break-after:   avoid"><span lang="DE">Gelegentlich</span></p> </td> </tr> <tr> <td style="width:27.58%;border-top:none;border-left:   none;border-bottom:solid windowtext 1.0pt;border-right:solid windowtext 1.0pt;   padding:.75pt 5.4pt 0in 5.4pt" valign="top" width="27%"> <p class="MsoNormal" style="line-height:normal;page-break-after:avoid"><span lang="DE">Schwindelgefühl</span></p> </td> <td style="width:23.42%;border-top:none;border-left:   none;border-bottom:solid windowtext 1.0pt;border-right:solid windowtext 1.0pt;   padding:0in 0in 0in 0in" valign="top" width="23%"> <p class="MsoNormal" style="margin-left:5.65pt;line-height:normal;page-break-after:   avoid"><span lang="DE">Gelegentlich</span></p> </td> </tr> <tr> <td style="width:27.58%;border-top:none;border-left:   none;border-bottom:solid windowtext 1.0pt;border-right:solid windowtext 1.0pt;   padding:.75pt 5.4pt 0in 5.4pt" valign="top" width="27%"> <p class="MsoNormal" style="line-height:normal;page-break-after:avoid"><span lang="DE">Dysgeusie</span></p> </td> <td style="width:23.42%;border-top:none;border-left:   none;border-bottom:solid windowtext 1.0pt;border-right:solid windowtext 1.0pt;   padding:0in 0in 0in 0in" valign="top" width="23%"> <p class="MsoNormal" style="margin-left:5.65pt;line-height:normal;page-break-after:   avoid"><span lang="DE">Gelegentlich</span></p> </td> </tr> <tr> <td style="width:49.0%;border-top:none;border-left:   solid black 1.0pt;border-bottom:solid black 1.0pt;border-right:solid windowtext 1.0pt;   padding:.75pt 5.4pt 0in 5.4pt" valign="top" width="49%"> <p class="MsoNormal" style="line-height:normal;page-break-after:avoid"><span lang="DE">Herzerkrankungen</span></p> </td> <td style="width:27.58%;border-top:none;border-left:   none;border-bottom:solid windowtext 1.0pt;border-right:solid windowtext 1.0pt;   padding:.75pt 5.4pt 0in 5.4pt" valign="top" width="27%"> <p class="MsoNormal" style="line-height:normal;page-break-after:avoid"><span lang="DE">Bradykardie</span></p> </td> <td style="width:23.42%;border-top:none;border-left:   none;border-bottom:solid windowtext 1.0pt;border-right:solid windowtext 1.0pt;   padding:0in 0in 0in 0in" valign="top" width="23%"> <p class="MsoNormal" style="margin-left:5.65pt;line-height:normal;page-break-after:   avoid"><span lang="DE">Gelegentlich</span></p> </td> </tr> <tr> <td rowspan="3" style="width:49.0%;border-top:none;   border-left:solid black 1.0pt;border-bottom:solid black 1.0pt;border-right:   solid windowtext 1.0pt;padding:.75pt 5.4pt 0in 5.4pt" valign="top" width="49%"> <p class="MsoNormal" style="line-height:normal;page-break-after:avoid"><span lang="DE">Gefäßerkrankungen</span></p> </td> <td style="width:27.58%;border-top:none;border-left:   none;border-bottom:solid windowtext 1.0pt;border-right:solid windowtext 1.0pt;   padding:.75pt 5.4pt 0in 5.4pt" valign="top" width="27%"> <p class="MsoNormal" style="line-height:normal;page-break-after:avoid"><span lang="DE">Hypertonie</span></p> </td> <td style="width:23.42%;border-top:none;border-left:   none;border-bottom:solid windowtext 1.0pt;border-right:solid windowtext 1.0pt;   padding:0in 0in 0in 0in" valign="top" width="23%"> <p class="MsoNormal" style="margin-left:5.65pt;line-height:normal;page-break-after:   avoid"><span lang="DE">Gelegentlich</span></p> </td> </tr> <tr> <td style="width:27.58%;border-top:none;border-left:   none;border-bottom:solid windowtext 1.0pt;border-right:solid windowtext 1.0pt;   padding:.75pt 5.4pt 0in 5.4pt" valign="top" width="27%"> <p class="MsoNormal" style="line-height:normal;page-break-after:avoid"><span lang="DE">Hitzewallung</span></p> </td> <td style="width:23.42%;border-top:none;border-left:   none;border-bottom:solid windowtext 1.0pt;border-right:solid windowtext 1.0pt;   padding:0in 0in 0in 0in" valign="top" width="23%"> <p class="MsoNormal" style="margin-left:5.65pt;line-height:normal;page-break-after:   avoid"><span lang="DE">Gelegentlich</span></p> </td> </tr> <tr> <td style="width:27.58%;border-top:none;border-left:   none;border-bottom:solid windowtext 1.0pt;border-right:solid windowtext 1.0pt;   padding:.75pt 5.4pt 0in 5.4pt" valign="top" width="27%"> <p class="MsoNormal" style="line-height:normal;page-break-after:avoid"><span lang="DE">Angiopathie<sup>4</sup></span></p> </td> <td style="width:23.42%;border-top:none;border-left:   none;border-bottom:solid windowtext 1.0pt;border-right:solid windowtext 1.0pt;   padding:0in 0in 0in 0in" valign="top" width="23%"> <p class="MsoNormal" style="margin-left:5.65pt;line-height:normal;page-break-after:   avoid"><span lang="DE">Gelegentlich </span></p> </td> </tr> <tr> <td style="width:49.0%;border-top:none;border-left:   solid black 1.0pt;border-bottom:solid black 1.0pt;border-right:solid windowtext 1.0pt;   padding:.75pt 5.4pt 0in 5.4pt" valign="top" width="49%"> <p class="MsoNormal" style="line-height:normal;page-break-after:avoid"><span lang="DE">Erkrankungen der Atemwege, des Brustraums und Mediastinums</span></p> </td> <td style="width:27.58%;border-top:none;border-left:   none;border-bottom:solid windowtext 1.0pt;border-right:solid windowtext 1.0pt;   padding:.75pt 5.4pt 0in 5.4pt" valign="top" width="27%"> <p class="MsoNormal" style="line-height:normal;page-break-after:avoid"><span lang="DE">Husten</span></p> </td> <td style="width:23.42%;border-top:none;border-left:   none;border-bottom:solid windowtext 1.0pt;border-right:solid windowtext 1.0pt;   padding:0in 0in 0in 0in" valign="top" width="23%"> <p class="MsoNormal" style="margin-left:5.65pt;line-height:normal;page-break-after:   avoid"><span lang="DE">Gelegentlich</span></p> </td> </tr> <tr> <td style="width:49.0%;border-top:none;border-left:   solid black 1.0pt;border-bottom:solid black 1.0pt;border-right:solid windowtext 1.0pt;   padding:.75pt 5.4pt 0in 5.4pt" valign="top" width="49%"> <p class="MsoNormal" style="line-height:normal;page-break-after:avoid"><span lang="DE">Erkrankungen des Gastrointestinaltrakts</span></p> </td> <td style="width:27.58%;border-top:none;border-left:   none;border-bottom:solid windowtext 1.0pt;border-right:solid windowtext 1.0pt;   padding:.75pt 5.4pt 0in 5.4pt" valign="top" width="27%"> <p class="MsoNormal" style="line-height:normal;page-break-after:avoid"><span lang="DE">Schmerzen im Unterbauch</span></p> </td> <td style="width:23.42%;border-top:none;border-left:   none;border-bottom:solid windowtext 1.0pt;border-right:solid windowtext 1.0pt;   padding:0in 0in 0in 0in" valign="top" width="23%"> <p class="MsoNormal" style="margin-left:5.65pt;line-height:normal;page-break-after:   avoid"><span lang="DE">Gelegentlich</span></p> </td> </tr> <tr> <td rowspan="2" style="width:49.0%;border-top:none;   border-left:solid black 1.0pt;border-bottom:solid black 1.0pt;border-right:   solid windowtext 1.0pt;padding:.75pt 5.4pt 0in 5.4pt" valign="top" width="49%"> <p class="MsoNormal" style="line-height:normal;page-break-after:avoid"><span lang="DE">Erkrankungen der Haut und des Unterhautzellgewebes</span></p> </td> <td style="width:27.58%;border-top:none;border-left:   none;border-bottom:solid windowtext 1.0pt;border-right:solid windowtext 1.0pt;   padding:.75pt 5.4pt 0in 5.4pt" valign="top" width="27%"> <p class="MsoNormal" style="line-height:normal;page-break-after:avoid"><span lang="DE">Papulöser Ausschlag</span></p> </td> <td style="width:23.42%;border-top:none;border-left:   none;border-bottom:solid windowtext 1.0pt;border-right:solid windowtext 1.0pt;   padding:0in 0in 0in 0in" valign="top" width="23%"> <p class="MsoNormal" style="margin-left:5.65pt;line-height:normal;page-break-after:   avoid"><span lang="DE">Häufig (PUPs)<sup>3</sup></span></p> </td> </tr> <tr> <td style="width:27.58%;border-top:none;border-left:   none;border-bottom:solid windowtext 1.0pt;border-right:solid windowtext 1.0pt;   padding:.75pt 5.4pt 0in 5.4pt" valign="top" width="27%"> <p class="MsoNormal" style="line-height:normal;page-break-after:avoid"><span lang="DE">Ausschlag</span></p> </td> <td style="width:23.42%;border-top:none;border-left:   none;border-bottom:solid windowtext 1.0pt;border-right:solid windowtext 1.0pt;   padding:0in 0in 0in 0in" valign="top" width="23%"> <p class="MsoNormal" style="margin-left:5.65pt;line-height:normal;page-break-after:   avoid"><span lang="DE">Gelegentlich</span></p> </td> </tr> <tr style="height:10.1pt"> <td rowspan="4" style="width:49.0%;border-top:none;   border-left:solid black 1.0pt;border-bottom:none;border-right:solid windowtext 1.0pt;   padding:.75pt 5.4pt 0in 5.4pt;height:10.1pt" valign="top" width="49%"> <p class="MsoNormal" style="line-height:normal;page-break-after:avoid"><span lang="DE">Skelettmuskulatur-, Bindegewebs- und Knochenerkrankungen</span></p> </td> <td style="width:27.58%;border-top:none;border-left:   none;border-bottom:solid windowtext 1.0pt;border-right:solid windowtext 1.0pt;   padding:.75pt 5.4pt 0in 5.4pt;height:10.1pt" valign="top" width="27%"> <p class="MsoNormal" style="line-height:normal;page-break-after:avoid"><span lang="DE">Arthralgie</span></p> </td> <td style="width:23.42%;border-top:none;border-left:   none;border-bottom:solid windowtext 1.0pt;border-right:solid windowtext 1.0pt;   padding:0in 0in 0in 0in;height:10.1pt" valign="top" width="23%"> <p class="MsoNormal" style="margin-left:5.65pt;line-height:normal;page-break-after:   avoid"><span lang="DE">Gelegentlich</span></p> </td> </tr> <tr style="height:.15in"> <td style="width:27.58%;border-top:none;border-left:   none;border-bottom:solid windowtext 1.0pt;border-right:solid windowtext 1.0pt;   padding:.75pt 5.4pt 0in 5.4pt;height:.15in" valign="top" width="27%"> <p class="MsoNormal" style="line-height:normal;page-break-after:avoid"><span lang="DE">Myalgie</span></p> </td> <td style="width:23.42%;border-top:none;border-left:   none;border-bottom:solid windowtext 1.0pt;border-right:solid windowtext 1.0pt;   padding:0in 0in 0in 0in;height:.15in" valign="top" width="23%"> <p class="MsoNormal" style="margin-left:5.65pt;line-height:normal;page-break-after:   avoid"><span lang="DE">Gelegentlich</span></p> </td> </tr> <tr style="height:10.3pt"> <td style="width:27.58%;border-top:none;border-left:   none;border-bottom:solid windowtext 1.0pt;border-right:solid windowtext 1.0pt;   padding:.75pt 5.4pt 0in 5.4pt;height:10.3pt" valign="top" width="27%"> <p class="MsoNormal" style="line-height:normal;page-break-after:avoid"><span lang="DE">Rückenschmerzen</span></p> </td> <td style="width:23.42%;border-top:none;border-left:   none;border-bottom:solid windowtext 1.0pt;border-right:solid windowtext 1.0pt;   padding:0in 0in 0in 0in;height:10.3pt" valign="top" width="23%"> <p class="MsoNormal" style="margin-left:5.65pt;line-height:normal;page-break-after:   avoid"><span lang="DE">Gelegentlich</span></p> </td> </tr> <tr style="height:11.2pt"> <td style="width:27.58%;border-top:none;border-left:   none;border-bottom:solid windowtext 1.0pt;border-right:solid windowtext 1.0pt;   padding:.75pt 5.4pt 0in 5.4pt;height:11.2pt" valign="top" width="27%"> <p class="MsoNormal" style="line-height:normal;page-break-after:avoid"><span lang="DE">Gelenkschwellung</span></p> </td> <td style="width:23.42%;border-top:none;border-left:   none;border-bottom:solid windowtext 1.0pt;border-right:solid windowtext 1.0pt;   padding:0in 0in 0in 0in;height:11.2pt" valign="top" width="23%"> <p class="MsoNormal" style="margin-left:5.65pt;line-height:normal;page-break-after:   avoid"><span lang="DE">Gelegentlich</span></p> </td> </tr> <tr style="height:25.05pt"> <td rowspan="5" style="width:49.0%;border-top:solid black 1.0pt;   border-left:solid black 1.0pt;border-bottom:none;border-right:solid windowtext 1.0pt;   padding:.75pt 5.4pt 0in 5.4pt;height:25.05pt" valign="top" width="49%"> <p class="MsoNormal" style="line-height:normal;page-break-after:avoid"><span lang="DE">Allgemeine Erkrankungen und Beschwerden am Verabreichungsort</span></p> </td> <td style="width:27.58%;border-top:none;border-left:   none;border-bottom:solid windowtext 1.0pt;border-right:solid windowtext 1.0pt;   padding:.75pt 5.4pt 0in 5.4pt;height:25.05pt" valign="top" width="27%"> <p class="MsoNormal" style="line-height:normal;page-break-after:avoid"><span lang="DE">Durch Medizinprodukt bedingte Thrombose</span></p> </td> <td style="width:23.42%;border-top:none;border-left:   none;border-bottom:solid windowtext 1.0pt;border-right:solid windowtext 1.0pt;   padding:0in 0in 0in 0in;height:25.05pt" valign="top" width="23%"> <p class="MsoNormal" style="margin-left:5.65pt;line-height:normal;page-break-after:   avoid"><span lang="DE">Häufig (PUPs)<sup>3</sup></span></p> </td> </tr> <tr style="height:12.5pt"> <td style="width:27.58%;border-top:none;border-left:   none;border-bottom:solid windowtext 1.0pt;border-right:solid windowtext 1.0pt;   padding:.75pt 5.4pt 0in 5.4pt;height:12.5pt" valign="top" width="27%"> <p class="MsoNormal" style="line-height:normal;page-break-after:avoid"><span lang="DE">Unwohlsein</span></p> </td> <td style="width:23.42%;border-top:none;border-left:   none;border-bottom:solid windowtext 1.0pt;border-right:solid windowtext 1.0pt;   padding:0in 0in 0in 0in;height:12.5pt" valign="top" width="23%"> <p class="MsoNormal" style="margin-left:5.65pt;line-height:normal;page-break-after:   avoid"><span lang="DE">Gelegentlich</span></p> </td> </tr> <tr style="height:13.4pt"> <td style="width:27.58%;border-top:none;border-left:   none;border-bottom:solid windowtext 1.0pt;border-right:solid windowtext 1.0pt;   padding:.75pt 5.4pt 0in 5.4pt;height:13.4pt" valign="top" width="27%"> <p class="MsoNormal" style="line-height:normal;page-break-after:avoid"><span lang="DE">Thoraxschmerzen</span></p> </td> <td style="width:23.42%;border-top:none;border-left:   none;border-bottom:solid windowtext 1.0pt;border-right:solid windowtext 1.0pt;   padding:0in 0in 0in 0in;height:13.4pt" valign="top" width="23%"> <p class="MsoNormal" style="margin-left:5.65pt;line-height:normal;page-break-after:   avoid"><span lang="DE">Gelegentlich</span></p> </td> </tr> <tr style="height:12.2pt"> <td style="width:27.58%;border-top:none;border-left:   none;border-bottom:solid windowtext 1.0pt;border-right:solid windowtext 1.0pt;   padding:.75pt 5.4pt 0in 5.4pt;height:12.2pt" valign="top" width="27%"> <p class="MsoNormal" style="line-height:normal;page-break-after:avoid"><span lang="DE">Kältegefühl</span></p> </td> <td style="width:23.42%;border-top:none;border-left:   none;border-bottom:solid windowtext 1.0pt;border-right:solid windowtext 1.0pt;   padding:0in 0in 0in 0in;height:12.2pt" valign="top" width="23%"> <p class="MsoNormal" style="margin-left:5.65pt;line-height:normal;page-break-after:   avoid"><span lang="DE">Gelegentlich</span></p> </td> </tr> <tr style="height:13.05pt"> <td style="width:27.58%;border-top:none;border-left:   none;border-bottom:solid windowtext 1.0pt;border-right:solid windowtext 1.0pt;   padding:.75pt 5.4pt 0in 5.4pt;height:13.05pt" valign="top" width="27%"> <p class="MsoNormal" style="line-height:normal;page-break-after:avoid"><span lang="DE">Wärmegefühl</span></p> </td> <td style="width:23.42%;border-top:none;border-left:   none;border-bottom:solid windowtext 1.0pt;border-right:solid windowtext 1.0pt;   padding:0in 0in 0in 0in;height:13.05pt" valign="top" width="23%"> <p class="MsoNormal" style="margin-left:5.65pt;line-height:normal;page-break-after:   avoid"><span lang="DE">Gelegentlich</span></p> </td> </tr> <tr> <td style="width:49.0%;border:solid black 1.0pt;   padding:.75pt 5.4pt 0in 5.4pt" valign="top" width="49%"> <p class="MsoNormal" style="line-height:normal"><span lang="DE">Verletzung,   Vergiftung und durch Eingriffe bedingte Komplikationen</span></p> </td> <td style="width:27.58%;border-top:none;border-left:   none;border-bottom:solid black 1.0pt;border-right:solid black 1.0pt;   padding:.75pt 5.4pt 0in 5.4pt" valign="top" width="27%"> <p class="MsoNormal" style="line-height:normal"><span lang="DE">Hypotonie im   Rahmen eines Eingriffs</span></p> </td> <td style="width:23.42%;border-top:none;border-left:   none;border-bottom:solid black 1.0pt;border-right:solid black 1.0pt;   padding:0in 0in 0in 0in" valign="top" width="23%"> <p class="MsoNormal" style="margin-left:5.65pt;line-height:normal"><span lang="DE">Gelegentlich</span></p> </td> </tr> </table><p class="MsoNormal" style="line-height:normal;text-autospace:none"><span lang="DE" style="font-size:10.0pt">PTPs = vorbehandelte Patienten, PUPs = zuvor unbehandelte Patienten</span><span lang="DE" style="font-size:10.0pt">.</span></p><p class="MsoNormal" style="line-height:normal;text-autospace:none"><sup><span lang="DE" style="font-size:10.0pt">1</span></sup><span lang="DE" style="font-size: 10.0pt"> Nebenwirkungen und Häufigkeiten beziehen sich lediglich auf das Auftreten bei PTPs, wenn nicht anders angegeben.</span></p><p class="MsoNormal" style="line-height:normal;text-autospace:none"><sup><span lang="DE" style="font-size:10.0pt">2</span></sup><span lang="DE" style="font-size: 10.0pt"> Die Häufigkeit basiert auf Studien mit allen FVIII-Produkten, wozu auch Patienten mit schwerer Hämophilie A gehörten.</span></p><p class="MsoNormal" style="line-height:normal;text-autospace:none"><sup><span lang="DE" style="font-size:10.0pt">3</span></sup><span lang="DE" style="font-size: 10.0pt"> Nebenwirkungen und Häufigkeiten beziehen sich lediglich auf das Auftreten bei PUPs.</span></p><p class="MsoNormal" style="line-height:normal;text-autospace:none"><sup><span lang="DE" style="font-size:10.0pt">4</span></sup><span lang="DE" style="font-size:10.0pt">Prüfarztbezeichnung: <i>vaskuläre Schmerzen nach Injektion von ELOCTA</i>.</span></p><p class="Default"><u><span lang="DE" style="font-size:11.0pt;color:windowtext"></span></u></p><p class="Default" style="page-break-after:avoid"><u><span lang="DE" style="font-size:11.0pt;color:windowtext">Kinder und Jugendliche</span></u></p><p class="MsoNormal" style="line-height:normal;text-autospace:none"><span lang="DE">Z</span><span lang="DE">wischen pädiatrischen und erwachsenen Patienten wurden keine altersbedingten Unterschiede bei den Nebenwirkungen beobachtet. Es ist davon auszugehen, dass Häufigkeit, Art und Schwere der Nebenwirkungen sich bei Kindern und Erwachsenen gleichen.</span></p><p class="MsoNormal" style="line-height:normal;text-autospace:none"></p><p class="MsoNormal" style="line-height:normal;page-break-after:avoid;text-autospace: none"><u><span lang="DE">Meldung des Verdachts auf Nebenwirkungen</span></u></p><p class="MsoNormal" style="line-height:normal;text-autospace:none"><span lang="DE">Die Meldung des Verdachts auf Nebenwirkungen nach der Zulassung ist von großer Wichtigkeit. Sie ermöglicht eine kontinuierliche Überwachung des Nutzen-Risiko-Verhältnisses des Arzneimittels. Angehörige von Gesundheitsberufen sind aufgefordert, jeden Verdachtsfall einer Nebenwirkung über <span style="color:black;background:#BFBFBF">das in </span></span><span lang="EN-GB"><a href="http://www.ema.europa.eu/docs/en_GB/document_library/Template_or_form/2013/03/WC500139752.doc"><span lang="DE" style="background:#BFBFBF">Anhang V</span></a></span><span lang="DE" style="color:black;background:#BFBFBF"> aufgeführte nationale Meldesystem</span><span lang="DE"> anzuzeigen.</span></p><p class="MsoNormal" style="line-height:normal;text-autospace:none"></p>
			</div>
		</text>
		
    	    
		
</section>
			    
    	    

			    
		               
<section>
			<title value="4.9     Überdosierung"/>
				<code>
					<coding>
						<system value="http://spor.ema.europa.eu/v1/example-sections"/>
						<code value="${document[n].section[n].subsection[n].typeCode}"/>
						<display value="${document[n].section[n].subsection[n].typeDisplay}"/>
					</coding>
				</code>
		<text>
			<status value="additional"/>
			<div xmlns="http://www.w3.org/1999/xhtml">
		    <p class="MsoNormal" style="line-height:normal;page-break-after:avoid;text-autospace: none"></p><p class="MsoNormal" style="line-height:normal"><span lang="DE">Es wurden keine Symptome einer Überdosierung berichtet.</span></p><p class="MsoNormal" style="line-height:normal"></p><p class="MsoNormal" style="margin-left:28.35pt;text-indent:-28.35pt;line-height: normal"></p>
			</div>
		</text>
		
    	    
		
</section>
			    
    	    
		
</section>
			    
    	    
				
			    
						
		               
<section>
			<title value="5.       PHARMAKOLOGISCHE EIGENSCHAFTEN"/>
				<code>
					<coding>
						<system value="http://spor.ema.europa.eu/v1/example-sections"/>
						<code value="${document[n].section[n].subsection[n].typeCode}"/>
						<display value="${document[n].section[n].subsection[n].typeDisplay}"/>
					</coding>
				</code>
		<text>
			<status value="additional"/>
			<div xmlns="http://www.w3.org/1999/xhtml">
		    <p class="MsoNormal" style="line-height:normal;page-break-after:avoid;text-autospace: none"></p>
			</div>
		</text>
		
    	    

			    
		               
<section>
			<title value="5.1     Pharmakodynamische Eigenschaften"/>
				<code>
					<coding>
						<system value="http://spor.ema.europa.eu/v1/example-sections"/>
						<code value="${document[n].section[n].subsection[n].typeCode}"/>
						<display value="${document[n].section[n].subsection[n].typeDisplay}"/>
					</coding>
				</code>
		<text>
			<status value="additional"/>
			<div xmlns="http://www.w3.org/1999/xhtml">
		    <p class="MsoNormal" style="line-height:normal;page-break-after:avoid;text-autospace: none"></p><p class="MsoNormal" style="line-height:normal"><span lang="DE">Pharmakotherapeutische Gruppe: Antihämorrhagika, Blutgerinnungsfaktor VIII, ATC‑Code: B02BD02</span></p><p class="MsoNormal" style="line-height:normal"></p><p class="MsoNormal" style="line-height:normal;page-break-after:avoid;text-autospace: none"><u><span lang="DE">Wirkmechanismus</span></u></p><p class="MsoNormal" style="line-height:normal;text-autospace:none"><span lang="DE">Der Faktor VIII/von‑Willebrand‑Faktor-Komplex besteht aus zwei Molekülen (Faktor VIII und von‑Willebrand‑Faktor) mit unterschiedlichen physiologischen Funktionen. Wird einem Hämophilie-Patienten Faktor VIII infundiert, bindet dieser an den von‑Willebrand‑Faktor im Blutkreislauf des Patienten. Aktivierter Faktor VIII wirkt als ein Co‑Faktor für den aktivierten Faktor IX und beschleunigt so die Umwandlung von Faktor X in den aktivierten Faktor X. Aktivierter Faktor X wiederum wandelt Prothrombin in Thrombin um. Thrombin wandelt dann Fibrinogen in Fibrin um, und ein Blutgerinnsel kann gebildet werden.</span></p><p class="MsoNormal" style="line-height:normal;text-autospace:none"></p><p class="MsoNormal" style="line-height:normal;text-autospace:none"><span lang="DE">Hämophilie A ist eine X‑chromosomal gebundene Erbkrankheit der Blutgerinnung, die auf einem Mangel an funktionsfähigem Faktor VIII:C beruht. Als Folge davon kann es zu Blutungen in Gelenke, Muskeln oder inneren Organen kommen, die entweder spontan oder infolge von Unfällen oder chirurgischen Eingriffen entstehen können. Durch die Substitutionstherapie werden die Faktor‑VIII-Plasmaspiegel angehoben, wodurch eine vorübergehende Korrektur des Faktor-Mangels sowie eine Behebung der Blutungsneigungen herbeigeführt werden.</span></p><p class="MsoNormal" style="line-height:normal;text-autospace:none"></p><p class="MsoNormal" style="line-height:normal;text-autospace:none"><span lang="DE">Es gilt zu beachten, dass die jährliche Blutungsrate (ABR) zwischen verschiedenen Faktorkonzentraten und zwischen den verschiedenen klinischen Studien nicht vergleichbar ist.</span></p><p class="MsoNormal" style="line-height:normal;text-autospace:none"></p><p class="MsoNormal" style="line-height:normal;text-autospace:none"><span lang="DE">ELOCTA (Efmoroctocog alfa) ist ein vollständig rekombinantes Fusionsprotein mit verlängerter Halbwertszeit. ELOCTA besteht aus dem B-Domänen-deletierten rekombinanten humanen Gerinnungsfaktor VIII und der kovalent daran gebundenen Fc‑Domäne des humanen Immunglobulins G1. Die Fc‑Domäne des humanen Immunglobulins G1 bindet an den neonatalen Fc‑Rezeptor. Dieser Rezeptor wird lebenslang exprimiert und ist Teil eines natürlichen Mechanismus, bei dem Immunglobuline vor einem lysosomalen Abbau geschützt werden und wieder in den Blutkreislauf zurückgeführt werden können, was zu einer langen Plasmahalbwertszeit führt. Efmoroctocog alfa bindet an den neonatalen Fc‑Rezeptor und nutzt dadurch denselben natürlichen Mechanismus, um den lysosomalen Abbau zu verzögern und eine längere Plasmahalbwertszeit als für den endogenen Faktor VIII zu ermöglichen.</span></p><p class="MsoNormal" style="line-height:normal;text-autospace:none"></p><p class="MsoNormal" style="line-height:normal;page-break-after:avoid;text-autospace: none"><u><span lang="DE">Klinische Wirksamkeit und Sicherheit</span></u></p><p class="MsoNormal" style="line-height:normal;text-autospace:none"><span lang="DE">Die Sicherheit, Wirksamkeit und Pharmakokinetik von ELOCTA bei vorbehandelten Patienten (PTPs) wurden in zwei multinationalen, unverblindeten Phase‑3-Zulassungsstudien, Studie I und Studie II (siehe Kinder und Jugendliche) sowie in einer Erweiterungsstudie (Studie III) mit einer Dauer von bis zu vier Jahren untersucht. Insgesamt wurden 276 PTPs über insgesamt 80.848 Expositionstage hinweg beobachtet, mit einem Medianwert von 294 (Intervall 1‑735) Expositionstagen pro Patient. Zusätzlich wurde eine Phase‑3-Studie (Studie IV) durchgeführt, in der die Sicherheit und Wirksamkeit von ELOCTA bei zuvor unbehandelten Patienten (PUPs) untersucht wurden (siehe Kinder und Jugendliche).</span></p><p class="MsoNormal" style="line-height:normal;text-autospace:none"></p><p class="MsoNormal" style="line-height:normal;text-autospace:none"><span lang="DE">In Studie I wurden 165 vorbehandelte männliche Patienten (12 bis 65 Jahre alt) mit schwerer Hämophilie A eingeschlossen. Patienten, die vor dem Einschluss in die Studie ein Prophylaxe-Schema erhalten hatten, wurden dem individualisierten Prophylaxe-Arm zugeordnet. Patienten, die vor dem Studieneinschluss eine Bedarfsbehandlung erhalten hatten, konnten entweder dem individualisierten Prophylaxe-Arm zugeteilt werden oder wurden per Randomisierung der wöchentlichen Prophylaxe bzw. der Bedarfsbehandlung zugeteilt.</span></p><p class="MsoNormal" style="line-height:normal;text-autospace:none"></p><p class="MsoNormal" style="line-height:normal;page-break-after:avoid;text-autospace: none"><span lang="DE">Prophylaxe-Schema:</span></p><p class="MsoNormal" style="line-height:normal;text-autospace:none"><span lang="DE">Individualisierte Prophylaxe: 25 bis 65 I.E./kg alle 3 bis 5 Tage</span></p><p class="MsoNormal" style="line-height:normal;text-autospace:none"><span lang="DE">Wöchentliche Prophylaxe: 65 I.E./kg</span></p><p class="MsoNormal" style="line-height:normal;text-autospace:none"></p><p class="MsoNormal" style="line-height:normal;text-autospace:none"><span lang="DE">Von 153 Patienten, die Studie I abgeschlossen hatten, wurden 150 in Studie III (Erweiterungsstudie) eingeschlossen. Die mediane Gesamtzeit in Studie I+III betrug 4,2 Jahre und die mediane Anzahl der Expositionstage betrug 309.</span></p><p class="MsoNormal" style="line-height:normal;text-autospace:none"></p><p class="MsoNormal" style="line-height:normal;text-autospace:none"><i><u><span lang="DE">Individualisierte Prophylaxe:</span></u></i><span lang="DE">Der mediane jährliche Faktorverbrauch lag bei 4212</span><span lang="DE"> I.E./kg (Min. </span><span lang="DE">2877, Max. 7943</span><span lang="DE">) in Studie I und bei </span><span lang="DE">4223</span><span lang="DE"> I.E./kg (Min. </span><span lang="DE">2668, Max. 8317</span><span lang="DE">) in Studie III. Die entsprechende mediane annualisierte Blutungsrate (ABR) betrug 1,60 (Min. 0, Max. 18,2) bzw. 0,74 (Min. 0, Max. 15,6).</span></p><p class="MsoNormal" style="line-height:normal;text-autospace:none"></p><p class="MsoNormal" style="line-height:normal;text-autospace:none"><i><u><span lang="DE">Wöchentliche Prophylaxe:</span></u></i><span lang="DE">Der mediane jährliche Faktorverbrauch lag bei 3805</span><span lang="DE"> I.E./kg (Min. </span><span lang="DE">3353, Max. 6196</span><span lang="DE">) in Studie I und bei </span><span lang="DE">3510</span><span lang="DE"> I.E./kg (Min. </span><span lang="DE">2758, Max. 3984</span><span lang="DE">) in Studie III. Die entsprechende ABR betrug 3,59 (Min. 0, Max. 58,0) bzw. 2,24 (Min. 0, Max. 17,2).</span></p><p class="MsoNormal" style="line-height:normal;text-autospace:none"></p><p class="MsoNormal" style="line-height:normal;text-autospace:none"><i><u><span lang="DE">Bedarfsbehandlung:</span></u></i><span lang="DE"> Der mediane jährliche Faktorverbrauch lag bei 1039</span><span lang="DE"> I.E./kg (Min. 280</span><span lang="DE">, Max. 3571</span><span lang="DE">) für die 23 Patienten, die in Studie I auf die Bedarfsbehandlung randomisiert wurden, und bei 671 I.E./kg (Min. 286</span><span lang="DE">, Max. 913</span><span lang="DE">) für die 6 Patienten, die in Studie III mindestens ein Jahr lang die Bedarfsbehandlung weiterführten.</span></p><p class="MsoNormal" style="line-height:normal;text-autospace:none"></p><p class="MsoNormal" style="line-height:normal;text-autospace:none"><span lang="DE">Patienten, die von der Bedarfsbehandlung zur wöchentlichen Prophylaxe in Studie III wechselten, hatten eine mediane ABR von 1,67.</span></p><p class="MsoNormal" style="line-height:normal;text-autospace:none"></p><p class="MsoNormal" style="line-height:normal;text-autospace:none"><i><u><span lang="DE">Behandlung von Blutungen:</span></u></i><span lang="DE"> In Studie I und III wurden 2490 Blutungsereignisse mit einer medianen Dosis von 43,8 I.E./kg (Min. 13,0, Max. 172,8) je Blutung kontrolliert. 79,2 % der ersten Injektionen wurden von den Patienten mit „ausgezeichnet“ oder „gut“ bewertet.</span></p><p class="MsoNormal" style="line-height:normal;text-autospace:none"></p><p class="MsoNormal" style="line-height:normal;text-autospace:none"><i><u><span lang="DE">Perioperative Behandlung (chirurgische Prophylaxe):</span></u></i><span lang="DE"> In Studie I und Studie III wurden an 34 Patienten insgesamt 48 große chirurgische Eingriffe durchgeführt und beurteilt. Das hämostatische Ansprechen wurde von den Ärzten mit „ausgezeichnet“ bei 41 und mit „gut“ bei 3 von 44 großen chirurgischen Eingriffen bewertet. Die mediane Dosis zur Aufrechterhaltung der Hämostase während des chirurgischen Eingriffs betrug 60,6 I.E./kg (Min. 38, Max. 158).</span></p><p class="MsoNormal" style="line-height:normal;text-autospace:none"></p><p class="MsoNormal" style="line-height:normal;page-break-after:avoid;text-autospace: none"><u><span lang="DE">Kinder und Jugendliche</span></u></p><p class="MsoNormal" style="line-height:normal"><span lang="DE">In Studie II wurden insgesamt 71 vorbehandelte männliche pädiatrische Patienten &lt; 12 Jahren mit schwerer Hämophilie A eingeschlossen. 69 der 71 eingeschlossenen Patienten erhielten mindestens 1 Dosis ELOCTA und konnten hinsichtlich der Wirksamkeit ausgewertet werden (35 waren &lt; 6 Jahre alt und 34 waren 6 bis &lt; 12 Jahre alt). </span><span lang="DE">Das Prophylaxe-Schema begann mit 25 I.E./kg am ersten Tag, gefolgt von 50 I.E./kg am vierten Tag. Dosen von bis zu 80 I.E./kg und ein Dosierungsintervall von lediglich 2 Tagen waren zulässig und kamen bei einer begrenzten Anzahl von Patienten in der Studie zum Einsatz. Von 67 Patienten, die Studie II abgeschlossen hatten, wurden 61 in Studie III (Erweiterungsstudie) eingeschlossen. Die mediane Gesamtzeit in Studie II+III betrug 3,4 Jahre und die mediane Anzahl der Expositionstage betrug 332.</span></p><p class="MsoNormal" style="line-height:normal"></p><p class="MsoNormal" style="line-height:normal"><i><u><span lang="DE">Prophylaxe, Alter &lt; 6 Jahre:</span></u></i><span lang="DE"> Das mediane Dosierungsintervall betrug 3,50 Tage in Studie II und Studie III. Der mediane jährliche Faktorverbrauch lag bei </span><span lang="DE">5146 I.E./kg (Min. 3695</span><span lang="DE">, Max. </span><span lang="DE">8474) in Studie IIund bei </span><span lang="DE">5418</span><span lang="DE"> I.E./kg (Min. </span><span lang="DE">3435, Max. 9564</span><span lang="DE">) in Studie III. Die entsprechende mediane annualisierte Blutungsrate (ABR) betrug 0,00 (Min. 0, Max. 10,5) bzw. 1,18 (Min. 0, Max. 9,2).</span></p><p class="MsoNormal" style="line-height:normal"></p><p class="MsoNormal" style="line-height:normal"><i><u><span lang="DE">Prophylaxe, Alter 6 bis &lt; 12 Jahre:</span></u></i><span lang="DE"> Das mediane Dosierungsintervall betrug 3,49 Tage in Studie II und 3,50 Tage in Studie III. Der mediane jährliche Faktorverbrauch lag bei </span><span lang="DE">4700 I.E./kg (Min. 3819</span><span lang="DE">, Max. </span><span lang="DE">8230</span><span lang="DE"> I.E./kg</span><span lang="DE">) in Studie II und bei 4990</span><span lang="DE">I.E./kg (Min. </span><span lang="DE">3856, Max. 9527</span><span lang="DE">) in Studie III. Die entsprechende mediane ABR betrug 2,01 (Min. 0, Max. 27,2) bzw. 1,59 (Min. 0, Max. 8,0).</span></p><p class="MsoNormal" style="line-height:normal"></p><p class="MsoNormal" style="line-height:normal"><i><u><span lang="DE">12 jugendliche Patienten im Alter von 12 bis &lt; 18 Jahren</span></u></i><span lang="DE"> wurden in die prophylaktisch behandelte erwachsene Studienpopulation eingeschlossen. Der mediane jährliche Faktorverbrauch lag bei </span><span lang="DE">5572 I.E./kg (Min. 3849</span><span lang="DE">, Max. </span><span lang="DE">7035) in Studie I und bei 4456 I.E./kg (Min. 3563</span><span lang="DE">, Max. </span><span lang="DE">8011) in Studie III. Die entsprechende mediane ABR betrug 1,92 (Min. 0, Max. 7,1) bzw. 1,25 (Min. 0, Max. 9,5).</span></p><p class="MsoNormal" style="line-height:normal"></p><p class="MsoNormal" style="line-height:normal"><i><u><span lang="DE">Behandlung von Blutungen:</span></u></i><span lang="DE"> In den Studien II und III wurden 447 Blutungsereignisse mit einer medianen Dosis von 63 I.E./kg (Min. 28, Max. 186) je Blutung kontrolliert. 90,2 % der ersten Injektionen wurden von den Patienten und ihren Betreuern mit „ausgezeichnet“ oder „gut“ bewertet.</span></p><p class="MsoNormal" style="line-height:normal"></p><p class="MsoNormal" style="line-height:normal"><span lang="DE">In Studie IV wurden 103 zuvor unbehandelte männliche Patienten (PUPs) &lt; 6 Jahren mit schwerer Hämophilie A untersucht. Die Patienten wurden über insgesamt 11.255 Expositionstage hinweg beobachtet, mit einem Medianwert von 100 (Intervall: 0–649) Expositionstagen pro Patient. Die meisten Patienten begannen mit einer episodenbezogenen Behandlung (n = 81) mit anschließendem Wechsel zur Prophylaxe (n = 69). 89 PUPs erhielten zu einem beliebigen Zeitpunkt während der Studie eine Prophylaxe. Die empfohlene Anfangsdosis zur Prophylaxe betrug 25–80 I.E./kg in Intervallen von 3‑5 Tagen. Bei Teilnehmern unter Prophylaxe betrug die mediane durchschnittliche Wochendosis 101,4 I.E./kg (Intervall 28,5–776,3 I.E./kg), und das mediane Dosierungsintervall betrug 3,87 Tage (Intervall 1,1–7 Tage). Der mediane jährliche Faktorverbrauch lag bei 3971,4 I.E./kg. Die mediane annualisierte Blutungsrate betrug 1,49 (Min. 0.0, Max. 18,7).</span></p><p class="MsoNormal" style="line-height:normal"></p>
			</div>
		</text>
		
    	    
		
</section>
			    
    	    

			    
		               
<section>
			<title value="5.2     Pharmakokinetische Eigenschaften"/>
				<code>
					<coding>
						<system value="http://spor.ema.europa.eu/v1/example-sections"/>
						<code value="${document[n].section[n].subsection[n].typeCode}"/>
						<display value="${document[n].section[n].subsection[n].typeDisplay}"/>
					</coding>
				</code>
		<text>
			<status value="additional"/>
			<div xmlns="http://www.w3.org/1999/xhtml">
		    <p class="MsoNormal" style="line-height:normal;page-break-after:avoid;text-autospace: none"></p><p class="MsoNormal" style="line-height:normal"><span lang="DE">Alle pharmakokinetischen Studien mit ELOCTA wurden bei vorbehandelten Patienten mit schwerer Hämophilie A durchgeführt. Die in diesem Abschnitt präsentierten Daten wurden mit dem chromogenen und Einstufen-Gerinnungstest ermittelt. Die pharmakokinetischen Daten, die mit dem chromogenen Test ermittelt wurden, waren ähnlich denen, die mit dem Einstufen-Gerinnungstest ermittelt wurden.</span></p><p class="MsoNormal" style="line-height:normal"></p><p class="MsoNormal" style="line-height:normal"><span lang="DE">Die pharmakokinetischen Eigenschaften wurden an 28 Patienten (≥ 15 Jahre) untersucht, die ELOCTA (rFVIIIFc) erhielten. Nach einer Auswaschphase von mindestens 96 Stunden (4 Tage) erhielten die Patienten eine Einzeldosis zu 50 I.E./kg ELOCTA. Pharmakokinetische Proben wurden vor der Dosisgabe und anschließend an sieben Zeitpunkten bis zu 120 Stunden (5 Tage) nach der Dosisgabe entnommen. Die pharmakokinetischen Parameter nach einer Dosis von 50 I.E./kg ELOCTA sind in den Tabellen 3 und 4 wiedergegeben.</span></p><p class="MsoNormal" style="line-height:normal"></p><p class="MsoNormal" style="line-height:normal;page-break-after:avoid;background: white"><b><span lang="DE" style="color:black">Tabelle </span></b><b><span lang="DE" style="color:black">3</span></b><b><span lang="DE" style="color:black">: </span></b><b><span lang="DE" style="color:black">Pharmakokinetische Parameter von ELOCTA</span></b><b><span lang="DE" style="color:black"> mit dem Einstufen-Gerinnungstest bestimmt</span></b></p><table border="0" cellpadding="0" cellspacing="0" class="MsoNormalTable" style="width:5.5in;margin-left:4.55pt;border-collapse:collapse" width="528"> <tr> <td rowspan="2" style="width:207.0pt;border:solid black 1.0pt;   padding:.75pt 4.55pt 0in 4.55pt" width="276"> <p align="center" class="MsoNormal" style="text-align:center;line-height:normal;   page-break-after:avoid"><b><span lang="DE">Pharmakokinetische Parameter<sup>1</sup></span></b></p> </td> <td style="width:189.0pt;border:solid black 1.0pt;border-left:none;   padding:.75pt 4.55pt 0in 4.55pt" width="252"> <p align="center" class="MsoNormal" style="text-align:center;line-height:normal;   page-break-after:avoid"><b><span lang="DE">ELOCTA</span></b></p> <p align="center" class="MsoNormal" style="text-align:center;line-height:normal;   page-break-after:avoid"><b><span lang="DE">(95%‑KI)</span></b></p> </td> </tr> <tr> <td style="width:189.0pt;border-top:none;border-left:none;   border-bottom:solid black 1.0pt;border-right:solid black 1.0pt;padding:.75pt 4.55pt 0in 4.55pt" width="252"> <p align="center" class="MsoNormal" style="text-align:center;line-height:normal;   page-break-after:avoid"><span lang="DE">N = 28</span></p> </td> </tr> <tr> <td style="width:207.0pt;border:solid black 1.0pt;border-top:none;   padding:.75pt 4.55pt 0in 4.55pt" width="276"> <p align="center" class="MsoNormal" style="text-align:center;line-height:normal;   page-break-after:avoid"><span lang="EN-GB">Inkrementelle Recovery (I.E./dl pro   I.E./kg)</span></p> </td> <td style="width:189.0pt;border-top:none;border-left:none;   border-bottom:solid black 1.0pt;border-right:solid black 1.0pt;padding:.75pt 4.55pt 0in 4.55pt" width="252"> <p align="center" class="MsoNormal" style="text-align:center;line-height:normal;   page-break-after:avoid"><span lang="DE">2,24<br/>   (2,11 ‑ 2,38)</span></p> </td> </tr> <tr> <td style="width:207.0pt;border:solid black 1.0pt;border-top:none;   padding:.75pt 4.55pt 0in 4.55pt" width="276"> <p align="center" class="MsoNormal" style="text-align:center;line-height:normal;   page-break-after:avoid"><span lang="EN-GB">AUC/Dosis</span></p> <p align="center" class="MsoNormal" style="text-align:center;line-height:normal;   page-break-after:avoid"><span lang="EN-GB">(I.E.*h/dl pro I.E./kg)</span></p> </td> <td style="width:189.0pt;border-top:none;border-left:none;   border-bottom:solid black 1.0pt;border-right:solid black 1.0pt;padding:.75pt 4.55pt 0in 4.55pt" width="252"> <p align="center" class="MsoNormal" style="text-align:center;line-height:normal;   page-break-after:avoid"><span lang="DE">51,2<br/>   (45,0 ‑ 58,4)</span></p> </td> </tr> <tr> <td style="width:207.0pt;border:solid black 1.0pt;border-top:none;   padding:.75pt 4.55pt 0in 4.55pt" width="276"> <p align="center" class="MsoNormal" style="text-align:center;line-height:normal;   page-break-after:avoid"><span lang="DE">C<sub>max</sub> (I.E./dl)</span></p> </td> <td style="width:189.0pt;border-top:none;border-left:none;   border-bottom:solid black 1.0pt;border-right:solid black 1.0pt;padding:.75pt 4.55pt 0in 4.55pt" width="252"> <p align="center" class="MsoNormal" style="text-align:center;line-height:normal;   page-break-after:avoid"><span lang="DE">108<br/>   (101 ‑ 115)</span></p> </td> </tr> <tr> <td style="width:207.0pt;border:solid black 1.0pt;border-top:none;   padding:.75pt 4.55pt 0in 4.55pt" width="276"> <p align="center" class="MsoNormal" style="text-align:center;line-height:normal;   page-break-after:avoid"><span lang="DE">CL (ml/h/kg)</span></p> </td> <td style="width:189.0pt;border-top:none;border-left:none;   border-bottom:solid black 1.0pt;border-right:solid black 1.0pt;padding:.75pt 4.55pt 0in 4.55pt" width="252"> <p align="center" class="MsoNormal" style="text-align:center;line-height:normal;   page-break-after:avoid"><span lang="DE">1,95<br/>   (1,71 ‑ 2,22)</span></p> </td> </tr> <tr> <td style="width:207.0pt;border:solid black 1.0pt;border-top:none;   padding:.75pt 4.55pt 0in 4.55pt" width="276"> <p align="center" class="MsoNormal" style="text-align:center;line-height:normal;   page-break-after:avoid"><span lang="DE">t<sub>½</sub> (h)</span></p> </td> <td style="width:189.0pt;border-top:none;border-left:none;   border-bottom:solid black 1.0pt;border-right:solid black 1.0pt;padding:.75pt 4.55pt 0in 4.55pt" width="252"> <p align="center" class="MsoNormal" style="text-align:center;line-height:normal;   page-break-after:avoid"><span lang="DE">19,0<br/>   (17,0 ‑ 21,1)</span></p> </td> </tr> <tr> <td style="width:207.0pt;border:solid black 1.0pt;border-top:none;   padding:.75pt 4.55pt 0in 4.55pt" width="276"> <p align="center" class="MsoNormal" style="text-align:center;line-height:normal;   page-break-after:avoid"><span lang="DE">MRT (h)</span></p> </td> <td style="width:189.0pt;border-top:none;border-left:none;   border-bottom:solid black 1.0pt;border-right:solid black 1.0pt;padding:.75pt 4.55pt 0in 4.55pt" width="252"> <p align="center" class="MsoNormal" style="text-align:center;line-height:normal;   page-break-after:avoid"><span lang="DE">25,2<br/>   (22,7 ‑ 27,9)</span></p> </td> </tr> <tr> <td style="width:207.0pt;border:solid black 1.0pt;border-top:none;   padding:.75pt 4.55pt 0in 4.55pt" width="276"> <p align="center" class="MsoNormal" style="text-align:center;line-height:normal;   page-break-after:avoid"><span lang="DE">V<sub>ss</sub> (ml/kg)</span></p> </td> <td style="width:189.0pt;border-top:none;border-left:none;   border-bottom:solid black 1.0pt;border-right:solid black 1.0pt;padding:.75pt 4.55pt 0in 4.55pt" width="252"> <p align="center" class="MsoNormal" style="text-align:center;line-height:normal;   page-break-after:avoid"><span lang="DE">49,1<br/>   (46,6 ‑ 51,7)</span></p> </td> </tr> </table><p class="MsoNormal" style="line-height:normal;text-autospace:none"><sup><span lang="DE">1</span></sup><span lang="DE"> Die pharmakokinetischen Parameter sind als geometrischer Mittelwert (95%iges KI) angegeben</span></p><p class="MsoNormal" style="line-height:normal"><span lang="DE">Abkürzungen: KI = Konfidenzintervall; C<sub>max</sub> = maximale Aktivität; AUC = Fläche unter der Kurve aus der FVIII-Aktivität gegen die Zeit; t<sub>½</sub> = terminale Halbwertszeit; CL = Clearance; V<sub>ss</sub> = Verteilungsvolumen im Steady State; MRT = mittlere Verweildauer.</span></p><p class="MsoNormal" style="line-height:normal"></p><p class="MsoNormal" style="margin-right:-.1pt;line-height:normal;page-break-after: avoid"><b><span lang="DE">Tabelle 4: Pharmakokinetische Parameter von ELOCTA mit dem chromogenen Test bestimmt </span></b></p><table border="0" cellpadding="0" cellspacing="0" class="MsoNormalTable" style="width:5.5in;margin-left:4.55pt;border-collapse:collapse" width="528"> <tr> <td rowspan="2" style="width:207.0pt;border:solid black 1.0pt;   padding:.75pt 4.55pt 0in 4.55pt" width="276"> <p align="center" class="MsoNormal" style="text-align:center;line-height:normal;   page-break-after:avoid"><b><span lang="DE">Pharmakokinetische Parameter<sup>1</sup></span></b></p> <p class="MsoNormal" style="line-height:normal;page-break-after:avoid"></p> </td> <td style="width:189.0pt;border:solid black 1.0pt;border-left:none;   padding:.75pt 4.55pt 0in 4.55pt" width="252"> <p align="center" class="MsoNormal" style="text-align:center;line-height:normal;   page-break-after:avoid"><b><span lang="DE">ELOCTA</span></b></p> <p align="center" class="MsoNormal" style="text-align:center;line-height:normal;   page-break-after:avoid"><b><span lang="DE">(95%‑KI)</span></b></p> </td> </tr> <tr> <td style="width:189.0pt;border-top:none;border-left:none;   border-bottom:solid black 1.0pt;border-right:solid black 1.0pt;padding:.75pt 4.55pt 0in 4.55pt" width="252"> <p align="center" class="MsoNormal" style="text-align:center;line-height:normal;   page-break-after:avoid"><span lang="DE">N = 27</span></p> </td> </tr> <tr> <td style="width:207.0pt;border:solid black 1.0pt;border-top:none;   padding:.75pt 4.55pt 0in 4.55pt" width="276"> <p align="center" class="MsoNormal" style="text-align:center;line-height:normal;   page-break-after:avoid"><span lang="EN-GB">Inkrementelle</span><span lang="EN-GB"> Recovery (I.E./dl pro I.E./kg)</span></p> </td> <td style="width:189.0pt;border-top:none;border-left:none;   border-bottom:solid black 1.0pt;border-right:solid black 1.0pt;background:   white;padding:.75pt 4.55pt 0in 4.55pt" width="252"> <p align="center" class="MsoNormal" style="text-align:center;line-height:normal;   page-break-after:avoid"><span lang="DE" style="color:black">2,49<br/>   (2,28 ‑ 2,73)</span></p> </td> </tr> <tr> <td style="width:207.0pt;border:solid black 1.0pt;border-top:none;   padding:.75pt 4.55pt 0in 4.55pt" width="276"> <p align="center" class="MsoNormal" style="text-align:center;line-height:normal;   page-break-after:avoid"><span lang="EN-GB">AUC/Dosis</span></p> <p align="center" class="MsoNormal" style="text-align:center;line-height:normal;   page-break-after:avoid"><span lang="EN-GB">(I.E.*h/dl pro I.E./kg)</span></p> </td> <td style="width:189.0pt;border-top:none;border-left:none;   border-bottom:solid black 1.0pt;border-right:solid black 1.0pt;background:   white;padding:.75pt 4.55pt 0in 4.55pt" width="252"> <p align="center" class="MsoNormal" style="text-align:center;line-height:normal;   page-break-after:avoid"><span lang="DE" style="color:black">47,5<br/>   (41,6 ‑ 54,2)</span></p> </td> </tr> <tr> <td style="width:207.0pt;border:solid black 1.0pt;border-top:none;   padding:.75pt 4.55pt 0in 4.55pt" width="276"> <p align="center" class="MsoNormal" style="text-align:center;line-height:normal;   page-break-after:avoid"><span lang="DE">C<sub>max</sub> (I.E./dl)</span></p> </td> <td style="width:189.0pt;border-top:none;border-left:none;   border-bottom:solid black 1.0pt;border-right:solid black 1.0pt;background:   white;padding:.75pt 4.55pt 0in 4.55pt" width="252"> <p align="center" class="MsoNormal" style="text-align:center;line-height:normal;   page-break-after:avoid"><span lang="DE" style="color:black">131<br/>   (104 ‑ 165)</span></p> </td> </tr> <tr> <td style="width:207.0pt;border:solid black 1.0pt;border-top:none;   padding:.75pt 4.55pt 0in 4.55pt" width="276"> <p align="center" class="MsoNormal" style="text-align:center;line-height:normal;   page-break-after:avoid"><span lang="DE">CL (ml/h/kg)</span></p> </td> <td style="width:189.0pt;border-top:none;border-left:none;   border-bottom:solid black 1.0pt;border-right:solid black 1.0pt;background:   white;padding:.75pt 4.55pt 0in 4.55pt" width="252"> <p align="center" class="MsoNormal" style="text-align:center;line-height:normal;   page-break-after:avoid"><span lang="DE" style="color:black">2,11<br/>   (1,85 ‑ 2,41)</span></p> </td> </tr> <tr> <td style="width:207.0pt;border:solid black 1.0pt;border-top:none;   padding:.75pt 4.55pt 0in 4.55pt" width="276"> <p align="center" class="MsoNormal" style="text-align:center;line-height:normal;   page-break-after:avoid"><span lang="DE">t<sub>½</sub> (h)</span></p> </td> <td style="width:189.0pt;border-top:none;border-left:none;   border-bottom:solid black 1.0pt;border-right:solid black 1.0pt;background:   white;padding:.75pt 4.55pt 0in 4.55pt" width="252"> <p align="center" class="MsoNormal" style="text-align:center;line-height:normal;   page-break-after:avoid"><span lang="DE" style="color:black">20,9<br/>   (18,2 ‑ 23,9)</span></p> </td> </tr> <tr> <td style="width:207.0pt;border:solid black 1.0pt;border-top:none;   padding:.75pt 4.55pt 0in 4.55pt" width="276"> <p align="center" class="MsoNormal" style="text-align:center;line-height:normal;   page-break-after:avoid"><span lang="DE">MRT (h)</span></p> </td> <td style="width:189.0pt;border-top:none;border-left:none;   border-bottom:solid black 1.0pt;border-right:solid black 1.0pt;background:   white;padding:.75pt 4.55pt 0in 4.55pt" width="252"> <p align="center" class="MsoNormal" style="text-align:center;line-height:normal;   page-break-after:avoid"><span lang="DE" style="color:black">25,0<br/>   (22,4 ‑ 27,8)</span></p> </td> </tr> <tr> <td style="width:207.0pt;border:solid black 1.0pt;border-top:none;   padding:.75pt 4.55pt 0in 4.55pt" width="276"> <p align="center" class="MsoNormal" style="text-align:center;line-height:normal;   page-break-after:avoid"><span lang="DE">V<sub>ss</sub> (ml/kg)</span></p> </td> <td style="width:189.0pt;border-top:none;border-left:none;   border-bottom:solid black 1.0pt;border-right:solid black 1.0pt;background:   white;padding:.75pt 4.55pt 0in 4.55pt" width="252"> <p align="center" class="MsoNormal" style="text-align:center;line-height:normal;   page-break-after:avoid"><span lang="DE" style="color:black">52,6<br/>   (47,4 ‑ 58,3)</span></p> </td> </tr> </table><p class="MsoNormal" style="line-height:normal;text-autospace:none"><sup><span lang="DE">1</span></sup><span lang="DE"> Die pharmakokinetischen Parameter sind als geometrischer Mittelwert (95%iges KI) angegeben</span></p><p class="MsoNormal" style="line-height:normal"><span lang="DE">Abkürzungen: KI = Konfidenzintervall; C<sub>max</sub> = maximale Aktivität; AUC = Fläche unter der Kurve aus der FVIII‑Aktivität gegen die Zeit; t<sub>½</sub> = terminale Halbwertszeit; CL = Clearance; V<sub>ss</sub> = Verteilungsvolumen im Steady State; MRT = mittlere Verweildauer.</span></p><p class="MsoNormal" style="line-height:normal"></p><p class="MsoNormal" style="line-height:normal"><span lang="DE">Die pharmakokinetischen Daten zeigen, dass ELOCTA eine verlängerte Halbwertszeit aufweist.</span></p><p class="MsoNormal" style="line-height:normal"></p><p class="MsoNormal" style="line-height:normal;page-break-after:avoid"><u><span lang="DE">Kinder und Jugendliche</span></u></p><p class="MsoNormal" style="margin-right:-.1pt;line-height:normal"><span lang="DE">Die pharmakokinetischen Parameter von ELOCTA wurden in Studie I für Jugendliche (</span><span lang="DE">pharmakokinetische</span><span lang="DE"> Probennahme vor der Dosisgabe und an mehreren Zeitpunkten bis zu 120 Stunden [5 Tage] nach der Dosisgabe) und in Studie II für Kinder (</span><span lang="DE">pharmakokinetische</span><span lang="DE"> Probennahme vor der Dosisgabe und an mehreren Zeitpunkten bis zu 72 Stunden [3 Tage] nach der Dosisgabe) bestimmt. Die mit den Daten pädiatrischer Patienten unter 18 Jahren berechneten pharmakokinetischen Parameter sind in den Tabellen 5 und 6 wiedergegeben.</span></p><p class="MsoNormal" style="line-height:normal"></p><p class="MsoNormal" style="line-height:normal;page-break-after:avoid"><a name="ProposedTable5PKforAdolescents"><b><span lang="DE">Tabelle 5: </span></b></a><b><span lang="DE">Pharmakokinetische Parameter von ELOCTA</span></b><b><span lang="DE"> in Kindern und Jugendlichen mit dem Einstufen-Gerinnungstest bestimmt</span></b></p><table border="1" cellpadding="0" cellspacing="0" class="MsoNormalTable" style="width:100.0%;border-collapse:collapse;border:none" width="100%"> <thead> <tr style="height:17.25pt"> <td rowspan="3" style="width:26.3%;border:solid windowtext 1.0pt;    padding:0in 5.4pt 0in 5.4pt;height:17.25pt" width="26%"> <p align="center" class="C-TableHeader" style="text-align:center"><span lang="DE">Pharmakokinetische    Parameter<sup>1</sup></span></p> </td> <td colspan="2" style="width:43.68%;border:solid windowtext 1.0pt;    border-left:none;padding:0in 5.4pt 0in 5.4pt;height:17.25pt" valign="top" width="43%"> <p align="center" class="C-TableHeader" style="text-align:center"><span lang="DE">Studie II</span></p> </td> <td rowspan="9" style="width:2.9%;border:solid windowtext 1.0pt;    border-left:none;padding:0in 5.4pt 0in 5.4pt;height:17.25pt" valign="top" width="2%"> <p align="center" class="C-TableHeader" style="text-align:center"></p> </td> <td style="width:27.12%;border:solid windowtext 1.0pt;    border-left:none;padding:0in 5.4pt 0in 5.4pt;height:17.25pt" valign="top" width="27%"> <p align="center" class="C-TableHeader" style="text-align:center"><span lang="DE">Studie I*</span></p> </td> </tr> <tr style="height:21.05pt"> <td style="width:23.32%;border-top:none;border-left:    none;border-bottom:solid windowtext 1.0pt;border-right:solid windowtext 1.0pt;    padding:0in 5.4pt 0in 5.4pt;height:21.05pt" valign="top" width="23%"> <p align="center" class="C-TableHeader" style="text-align:center"><span lang="DE">&lt; 6 Jahre</span></p> </td> <td style="width:20.36%;border-top:none;border-left:    none;border-bottom:solid windowtext 1.0pt;border-right:solid windowtext 1.0pt;    padding:0in 5.4pt 0in 5.4pt;height:21.05pt" valign="top" width="20%"> <p align="center" class="C-TableHeader" style="text-align:center"><span lang="DE">6    bis &lt; 12 Jahre</span></p> </td> <td style="width:27.12%;border-top:none;border-left:    none;border-bottom:solid windowtext 1.0pt;border-right:solid windowtext 1.0pt;    padding:0in 5.4pt 0in 5.4pt;height:21.05pt" valign="top" width="27%"> <p align="center" class="C-TableHeader" style="text-align:center"><span lang="DE">12    bis &lt; 18 Jahre</span></p> </td> </tr> <tr style="height:17.7pt"> <td style="width:23.32%;border-top:none;border-left:    none;border-bottom:solid windowtext 1.0pt;border-right:solid windowtext 1.0pt;    padding:0in 5.4pt 0in 5.4pt;height:17.7pt" valign="top" width="23%"> <p align="center" class="C-TableHeader" style="text-align:center"><span lang="DE" style="font-weight:normal">N = 23</span></p> </td> <td style="width:20.36%;border-top:none;border-left:    none;border-bottom:solid windowtext 1.0pt;border-right:solid windowtext 1.0pt;    padding:0in 5.4pt 0in 5.4pt;height:17.7pt" valign="top" width="20%"> <p align="center" class="C-TableHeader" style="text-align:center"><span lang="DE" style="font-weight:normal">N = 31</span></p> </td> <td style="width:27.12%;border-top:none;border-left:    none;border-bottom:solid windowtext 1.0pt;border-right:solid windowtext 1.0pt;    padding:0in 5.4pt 0in 5.4pt;height:17.7pt" valign="top" width="27%"> <p align="center" class="C-TableHeader" style="text-align:center"><span lang="DE" style="font-weight:normal">N = 11</span></p> </td> </tr> </thead> <tr style="height:24.25pt"> <td style="width:26.3%;border:solid windowtext 1.0pt;   border-top:none;padding:0in 5.4pt 0in 5.4pt;height:24.25pt" valign="top" width="26%"> <p align="center" class="C-TableText" style="text-align:center;page-break-after:   avoid"><span lang="EN-GB">Inkrementelle Recovery (I.E./dl pro I.E./kg)</span></p> </td> <td style="width:23.32%;border-top:none;border-left:   none;border-bottom:solid windowtext 1.0pt;border-right:solid windowtext 1.0pt;   padding:0in 5.4pt 0in 5.4pt;height:24.25pt" valign="top" width="23%"> <p align="center" class="C-TableText" style="text-align:center;page-break-after:   avoid"><span lang="DE">1,90<br/>   (1,79 ‑ 2,02)</span></p> </td> <td style="width:20.36%;border-top:none;border-left:   none;border-bottom:solid windowtext 1.0pt;border-right:solid windowtext 1.0pt;   padding:0in 5.4pt 0in 5.4pt;height:24.25pt" valign="top" width="20%"> <p align="center" class="C-TableText" style="text-align:center;page-break-after:   avoid"><span lang="DE">2,30<br/>   (2,04 ‑ 2,59)</span></p> </td> <td style="width:27.12%;border-top:none;border-left:   none;border-bottom:solid windowtext 1.0pt;border-right:solid windowtext 1.0pt;   padding:0in 5.4pt 0in 5.4pt;height:24.25pt" valign="top" width="27%"> <p align="center" class="C-TableText" style="text-align:center;page-break-after:   avoid"><span lang="DE">1,81<br/>   (1,56 ‑ 2,09)</span></p> </td> </tr> <tr style="height:22.45pt"> <td style="width:26.3%;border:solid windowtext 1.0pt;   border-top:none;padding:0in 5.4pt 0in 5.4pt;height:22.45pt" valign="top" width="26%"> <p align="center" class="C-TableText" style="text-align:center;line-height:13.0pt;   page-break-after:avoid"><span lang="EN-GB">AUC/Dosis<br/>   (I.E.*h/dl pro I.E./kg)</span></p> </td> <td style="width:23.32%;border-top:none;border-left:   none;border-bottom:solid windowtext 1.0pt;border-right:solid windowtext 1.0pt;   padding:0in 5.4pt 0in 5.4pt;height:22.45pt" valign="top" width="23%"> <p align="center" class="C-TableText" style="text-align:center;page-break-after:   avoid"><span lang="DE">28,9<br/>   (25,6 ‑ 32,7)</span></p> </td> <td style="width:20.36%;border-top:none;border-left:   none;border-bottom:solid windowtext 1.0pt;border-right:solid windowtext 1.0pt;   padding:0in 5.4pt 0in 5.4pt;height:22.45pt" valign="top" width="20%"> <p align="center" class="C-TableText" style="text-align:center;page-break-after:   avoid"><span lang="DE">38,4<br/>   (33,2 ‑ 44,4)</span></p> </td> <td style="width:27.12%;border-top:none;border-left:   none;border-bottom:solid windowtext 1.0pt;border-right:solid windowtext 1.0pt;   padding:0in 5.4pt 0in 5.4pt;height:22.45pt" valign="top" width="27%"> <p align="center" class="C-TableText" style="text-align:center;page-break-after:   avoid"><span lang="DE">38,2<br/>   (34,0 ‑ 42,9)</span></p> </td> </tr> <tr style="height:24.45pt"> <td style="width:26.3%;border:solid windowtext 1.0pt;   border-top:none;padding:0in 5.4pt 0in 5.4pt;height:24.45pt" valign="top" width="26%"> <p align="center" class="C-TableText" style="text-align:center;page-break-after:   avoid"><span lang="DE">t<sub>½</sub> (h)</span></p> </td> <td style="width:23.32%;border-top:none;border-left:   none;border-bottom:solid windowtext 1.0pt;border-right:solid windowtext 1.0pt;   padding:0in 5.4pt 0in 5.4pt;height:24.45pt" valign="top" width="23%"> <p align="center" class="C-TableText" style="text-align:center;page-break-after:   avoid"><span lang="DE">12,3<br/>   (11,0 ‑ 13,7)</span></p> </td> <td style="width:20.36%;border-top:none;border-left:   none;border-bottom:solid windowtext 1.0pt;border-right:solid windowtext 1.0pt;   padding:0in 5.4pt 0in 5.4pt;height:24.45pt" valign="top" width="20%"> <p align="center" class="C-TableText" style="text-align:center;page-break-after:   avoid"><span lang="DE">13,5<br/>   (11,4 ‑ 15,8)</span></p> </td> <td style="width:27.12%;border-top:none;border-left:   none;border-bottom:solid windowtext 1.0pt;border-right:solid windowtext 1.0pt;   padding:0in 5.4pt 0in 5.4pt;height:24.45pt" valign="top" width="27%"> <p align="center" class="C-TableText" style="text-align:center;page-break-after:   avoid"><span lang="DE">16,0<br/>   (13,9 ‑ 18,5)</span></p> </td> </tr> <tr style="page-break-inside:avoid;height:11.5pt"> <td style="width:26.3%;border:solid windowtext 1.0pt;   border-top:none;padding:0in 5.4pt 0in 5.4pt;height:11.5pt" valign="top" width="26%"> <p align="center" class="C-TableText" style="text-align:center;page-break-after:   avoid"><span lang="DE">MRT (h)</span></p> </td> <td style="width:23.32%;border-top:none;border-left:   none;border-bottom:solid windowtext 1.0pt;border-right:solid windowtext 1.0pt;   padding:0in 5.4pt 0in 5.4pt;height:11.5pt" valign="top" width="23%"> <p align="center" class="C-TableText" style="text-align:center;page-break-after:   avoid"><span lang="DE">16,8<br/>   (15,1 ‑ 18,6)</span></p> </td> <td style="width:20.36%;border-top:none;border-left:   none;border-bottom:solid windowtext 1.0pt;border-right:solid windowtext 1.0pt;   padding:0in 5.4pt 0in 5.4pt;height:11.5pt" valign="top" width="20%"> <p align="center" class="C-TableText" style="text-align:center;page-break-after:   avoid"><span lang="DE">19,0<br/>   (16,2 ‑ 22,3)</span></p> </td> <td style="width:27.12%;border-top:none;border-left:   none;border-bottom:solid windowtext 1.0pt;border-right:solid windowtext 1.0pt;   padding:0in 5.4pt 0in 5.4pt;height:11.5pt" valign="top" width="27%"> <p align="center" class="C-TableText" style="text-align:center;page-break-after:   avoid"><span lang="DE">22,7<br/>   (19,7 ‑ 26,1)</span></p> </td> </tr> <tr style="height:12.2pt"> <td style="width:26.3%;border:solid windowtext 1.0pt;   border-top:none;padding:0in 5.4pt 0in 5.4pt;height:12.2pt" valign="top" width="26%"> <p align="center" class="C-TableText" style="text-align:center;page-break-after:   avoid"><span lang="DE">CL (ml/h/kg)</span></p> </td> <td style="width:23.32%;border-top:none;border-left:   none;border-bottom:solid windowtext 1.0pt;border-right:solid windowtext 1.0pt;   padding:0in 5.4pt 0in 5.4pt;height:12.2pt" valign="top" width="23%"> <p align="center" class="C-TableText" style="text-align:center;page-break-after:   avoid"><span lang="DE">3,46<br/>   (3,06 ‑ 3,91)</span></p> </td> <td style="width:20.36%;border-top:none;border-left:   none;border-bottom:solid windowtext 1.0pt;border-right:solid windowtext 1.0pt;   padding:0in 5.4pt 0in 5.4pt;height:12.2pt" valign="top" width="20%"> <p align="center" class="C-TableText" style="text-align:center;page-break-after:   avoid"><span lang="DE">2,61<br/>   (2,26 ‑ 3,01)</span></p> </td> <td style="width:27.12%;border-top:none;border-left:   none;border-bottom:solid windowtext 1.0pt;border-right:solid windowtext 1.0pt;   padding:0in 5.4pt 0in 5.4pt;height:12.2pt" valign="top" width="27%"> <p align="center" class="C-TableText" style="text-align:center;page-break-after:   avoid"><span lang="DE">2,62<br/>   (2,33 ‑ 2,95)</span></p> </td> </tr> <tr style="page-break-inside:avoid;height:12.2pt"> <td style="width:26.3%;border:solid windowtext 1.0pt;   border-top:none;padding:0in 5.4pt 0in 5.4pt;height:12.2pt" valign="top" width="26%"> <p align="center" class="C-TableText" style="text-align:center;page-break-after:   avoid"><span lang="DE">V<sub>ss</sub> (ml/kg)</span></p> </td> <td style="width:23.32%;border-top:none;border-left:   none;border-bottom:solid windowtext 1.0pt;border-right:solid windowtext 1.0pt;   padding:0in 5.4pt 0in 5.4pt;height:12.2pt" valign="top" width="23%"> <p align="center" class="C-TableText" style="text-align:center"><span lang="DE">57,9<br/>   (54,1 ‑ 62,0)</span></p> </td> <td style="width:20.36%;border-top:none;border-left:   none;border-bottom:solid windowtext 1.0pt;border-right:solid windowtext 1.0pt;   padding:0in 5.4pt 0in 5.4pt;height:12.2pt" valign="top" width="20%"> <p align="center" class="C-TableText" style="text-align:center"><span lang="DE">49,5<br/>   (44,1 ‑ 55,6)</span></p> </td> <td style="width:27.12%;border-top:none;border-left:   none;border-bottom:solid windowtext 1.0pt;border-right:solid windowtext 1.0pt;   padding:0in 5.4pt 0in 5.4pt;height:12.2pt" valign="top" width="27%"> <p align="center" class="C-TableText" style="text-align:center"><span lang="DE">59,4<br/>   (52,7 ‑ 67,0)</span></p> </td> </tr> <tr style="page-break-inside:avoid;height:12.2pt"> <td colspan="5" style="width:100.0%;border:none;   padding:0in 5.4pt 0in 5.4pt;height:12.2pt" valign="top" width="100%"> <p class="MsoNormal" style="line-height:normal"><sup><span lang="DE">1</span></sup><span lang="DE"> Die pharmakokinetischen Parameter sind als geometrischer Mittelwert   (95%iges KI) angegeben</span></p> <p class="MsoNormal" style="line-height:normal"><span lang="DE">Abkürzungen: KI =   Konfidenzintervall; AUC = Fläche unter der Kurve aus der FVIII‑Aktivität   gegen die Zeit; t<sub>½</sub> = terminale Halbwertszeit; CL = Clearance; MRT   = mittlere Verweildauer; V<sub>ss</sub> = Verteilungsvolumen im   Steady State.</span></p> <p class="MsoNormal" style="line-height:normal"><span lang="DE">* Die   pharmakokinetischen Parameter für das Alter von 12 bis   &lt; 18 Jahren beruhen auf Daten von Patienten sämtlicher   Behandlungsarme in Studie I mit unterschiedlichen Probennahmenplänen.</span></p> </td> </tr> </table><p class="MsoNormal" style="line-height:normal"></p><p class="MsoNormal" style="line-height:normal;page-break-after:avoid"><b><span lang="DE">Tabelle 6: Pharmakokinetische Parameter von ELOCTA</span></b><b><span lang="DE">in Kindern und Jugendlichen </span></b><b><span lang="DE">mit dem </span></b><b><span lang="DE">chromogenen Test bestimmt</span></b></p><table border="1" cellpadding="0" cellspacing="0" class="MsoNormalTable" style="width:100.0%;border-collapse:collapse;border:none" width="100%"> <thead> <tr style="height:17.25pt"> <td rowspan="3" style="width:26.3%;border:solid windowtext 1.0pt;    padding:0in 5.4pt 0in 5.4pt;height:17.25pt" width="26%"> <p align="center" class="C-TableHeader" style="text-align:center"><span lang="DE">Pharmakokinetische    Parameter<sup>1</sup></span></p> </td> <td colspan="2" style="width:43.68%;border:solid windowtext 1.0pt;    border-left:none;padding:0in 5.4pt 0in 5.4pt;height:17.25pt" valign="top" width="43%"> <p align="center" class="C-TableHeader" style="text-align:center"><span lang="DE">Studie II</span></p> </td> <td rowspan="9" style="width:2.9%;border:solid windowtext 1.0pt;    border-left:none;padding:0in 5.4pt 0in 5.4pt;height:17.25pt" valign="top" width="2%"> <p align="center" class="C-TableHeader" style="text-align:center"></p> </td> <td style="width:27.12%;border:solid windowtext 1.0pt;    border-left:none;padding:0in 5.4pt 0in 5.4pt;height:17.25pt" valign="top" width="27%"> <p align="center" class="C-TableHeader" style="text-align:center"><span lang="DE">Studie I*</span></p> </td> </tr> <tr style="height:21.05pt"> <td style="width:23.32%;border-top:none;border-left:    none;border-bottom:solid windowtext 1.0pt;border-right:solid windowtext 1.0pt;    padding:0in 5.4pt 0in 5.4pt;height:21.05pt" valign="top" width="23%"> <p align="center" class="C-TableHeader" style="text-align:center"><span lang="DE">&lt; 6 Jahre</span></p> </td> <td style="width:20.36%;border-top:none;border-left:    none;border-bottom:solid windowtext 1.0pt;border-right:solid windowtext 1.0pt;    padding:0in 5.4pt 0in 5.4pt;height:21.05pt" valign="top" width="20%"> <p align="center" class="C-TableHeader" style="text-align:center"><span lang="DE">6    bis &lt; 12 Jahre</span></p> </td> <td style="width:27.12%;border-top:none;border-left:    none;border-bottom:solid windowtext 1.0pt;border-right:solid windowtext 1.0pt;    padding:0in 5.4pt 0in 5.4pt;height:21.05pt" valign="top" width="27%"> <p align="center" class="C-TableHeader" style="text-align:center"><span lang="DE">12    bis &lt; 18 Jahre</span></p> </td> </tr> <tr style="height:17.7pt"> <td style="width:23.32%;border-top:none;border-left:    none;border-bottom:solid windowtext 1.0pt;border-right:solid windowtext 1.0pt;    padding:0in 5.4pt 0in 5.4pt;height:17.7pt" valign="top" width="23%"> <p align="center" class="C-TableHeader" style="text-align:center"><span lang="DE" style="font-weight:normal">N = 24</span></p> </td> <td style="width:20.36%;border-top:none;border-left:    none;border-bottom:solid windowtext 1.0pt;border-right:solid windowtext 1.0pt;    padding:0in 5.4pt 0in 5.4pt;height:17.7pt" valign="top" width="20%"> <p align="center" class="C-TableHeader" style="text-align:center"><span lang="DE" style="font-weight:normal">N = 27</span></p> </td> <td style="width:27.12%;border-top:none;border-left:    none;border-bottom:solid windowtext 1.0pt;border-right:solid windowtext 1.0pt;    padding:0in 5.4pt 0in 5.4pt;height:17.7pt" valign="top" width="27%"> <p align="center" class="C-TableHeader" style="text-align:center"><span lang="DE" style="font-weight:normal">N = 11</span></p> </td> </tr> </thead> <tr style="height:24.25pt"> <td style="width:26.3%;border:solid windowtext 1.0pt;   border-top:none;padding:0in 5.4pt 0in 5.4pt;height:24.25pt" valign="top" width="26%"> <p align="center" class="C-TableText" style="text-align:center;page-break-after:   avoid"><span lang="EN-GB">Inkrementelle Recovery (I.E./dl pro I.E./kg)</span></p> </td> <td style="width:23.32%;border-top:none;border-left:   none;border-bottom:solid windowtext 1.0pt;border-right:solid windowtext 1.0pt;   padding:0in 5.4pt 0in 5.4pt;height:24.25pt" valign="top" width="23%"> <p align="center" class="C-TableText" style="text-align:center;page-break-after:   avoid"><span lang="DE">1,88<br/>   (1,73 ‑ 2,05)</span></p> </td> <td style="width:20.36%;border-top:none;border-left:   none;border-bottom:solid windowtext 1.0pt;border-right:solid windowtext 1.0pt;   padding:0in 5.4pt 0in 5.4pt;height:24.25pt" valign="top" width="20%"> <p align="center" class="C-TableText" style="text-align:center;page-break-after:   avoid"><span lang="DE">2,08<br/>   (1,91 ‑ 2,25)</span></p> </td> <td style="width:27.12%;border-top:none;border-left:   none;border-bottom:solid windowtext 1.0pt;border-right:solid windowtext 1.0pt;   padding:0in 5.4pt 0in 5.4pt;height:24.25pt" valign="top" width="27%"> <p align="center" class="C-TableText" style="text-align:center;page-break-after:   avoid"><span lang="DE">1,91<br/>   (1,61 ‑ 2,27)</span></p> </td> </tr> <tr style="height:22.45pt"> <td style="width:26.3%;border:solid windowtext 1.0pt;   border-top:none;padding:0in 5.4pt 0in 5.4pt;height:22.45pt" valign="top" width="26%"> <p align="center" class="C-TableText" style="text-align:center;line-height:13.0pt;   page-break-after:avoid"><span lang="EN-GB">AUC/Dosis<br/>   (I.E.*h/dl pro I.E./kg)</span></p> </td> <td style="width:23.32%;border-top:none;border-left:   none;border-bottom:solid windowtext 1.0pt;border-right:solid windowtext 1.0pt;   padding:0in 5.4pt 0in 5.4pt;height:22.45pt" valign="top" width="23%"> <p align="center" class="C-TableText" style="text-align:center;page-break-after:   avoid"><span lang="DE">25,9<br/>   (23,4 ‑ 28,7)</span></p> </td> <td style="width:20.36%;border-top:none;border-left:   none;border-bottom:solid windowtext 1.0pt;border-right:solid windowtext 1.0pt;   padding:0in 5.4pt 0in 5.4pt;height:22.45pt" valign="top" width="20%"> <p align="center" class="C-TableText" style="text-align:center;page-break-after:   avoid"><span lang="DE">32,8<br/>   (28,2 ‑ 38,2)</span></p> </td> <td style="width:27.12%;border-top:none;border-left:   none;border-bottom:solid windowtext 1.0pt;border-right:solid windowtext 1.0pt;   padding:0in 5.4pt 0in 5.4pt;height:22.45pt" valign="top" width="27%"> <p align="center" class="C-TableText" style="text-align:center;page-break-after:   avoid"><span lang="DE">40,8<br/>   (29,3 ‑ 56,7)</span></p> </td> </tr> <tr style="height:24.45pt"> <td style="width:26.3%;border:solid windowtext 1.0pt;   border-top:none;padding:0in 5.4pt 0in 5.4pt;height:24.45pt" valign="top" width="26%"> <p align="center" class="C-TableText" style="text-align:center;page-break-after:   avoid"><span lang="DE">t<sub>½</sub> (h)</span></p> </td> <td style="width:23.32%;border-top:none;border-left:   none;border-bottom:solid windowtext 1.0pt;border-right:solid windowtext 1.0pt;   padding:0in 5.4pt 0in 5.4pt;height:24.45pt" valign="top" width="23%"> <p align="center" class="C-TableText" style="text-align:center;page-break-after:   avoid"><span lang="DE">14,3<br/>   (12,6 ‑ 16,2)</span></p> </td> <td style="width:20.36%;border-top:none;border-left:   none;border-bottom:solid windowtext 1.0pt;border-right:solid windowtext 1.0pt;   padding:0in 5.4pt 0in 5.4pt;height:24.45pt" valign="top" width="20%"> <p align="center" class="C-TableText" style="text-align:center;page-break-after:   avoid"><span lang="DE">15,9<br/>   (13,8 ‑ 18,2)</span></p> </td> <td style="width:27.12%;border-top:none;border-left:   none;border-bottom:solid windowtext 1.0pt;border-right:solid windowtext 1.0pt;   padding:0in 5.4pt 0in 5.4pt;height:24.45pt" valign="top" width="27%"> <p align="center" class="C-TableText" style="text-align:center;page-break-after:   avoid"><span lang="DE">17,5<br/>   (12,7 ‑ 24,0)</span></p> </td> </tr> <tr style="page-break-inside:avoid;height:11.5pt"> <td style="width:26.3%;border:solid windowtext 1.0pt;   border-top:none;padding:0in 5.4pt 0in 5.4pt;height:11.5pt" valign="top" width="26%"> <p align="center" class="C-TableText" style="text-align:center;page-break-after:   avoid"><span lang="DE">MRT (h)</span></p> </td> <td style="width:23.32%;border-top:none;border-left:   none;border-bottom:solid windowtext 1.0pt;border-right:solid windowtext 1.0pt;   padding:0in 5.4pt 0in 5.4pt;height:11.5pt" valign="top" width="23%"> <p align="center" class="C-TableText" style="text-align:center;page-break-after:   avoid"><span lang="DE">17,2<br/>   (15,4 ‑ 19,3)</span></p> </td> <td style="width:20.36%;border-top:none;border-left:   none;border-bottom:solid windowtext 1.0pt;border-right:solid windowtext 1.0pt;   padding:0in 5.4pt 0in 5.4pt;height:11.5pt" valign="top" width="20%"> <p align="center" class="C-TableText" style="text-align:center;page-break-after:   avoid"><span lang="DE">20,7<br/>   (18,0 ‑ 23,8)</span></p> </td> <td style="width:27.12%;border-top:none;border-left:   none;border-bottom:solid windowtext 1.0pt;border-right:solid windowtext 1.0pt;   padding:0in 5.4pt 0in 5.4pt;height:11.5pt" valign="top" width="27%"> <p align="center" class="C-TableText" style="text-align:center;page-break-after:   avoid"><span lang="DE">23,5<br/>   (17,0 ‑ 32,4)</span></p> </td> </tr> <tr style="height:12.2pt"> <td style="width:26.3%;border:solid windowtext 1.0pt;   border-top:none;padding:0in 5.4pt 0in 5.4pt;height:12.2pt" valign="top" width="26%"> <p align="center" class="C-TableText" style="text-align:center;page-break-after:   avoid"><span lang="DE">CL (ml/h/kg)</span></p> </td> <td style="width:23.32%;border-top:none;border-left:   none;border-bottom:solid windowtext 1.0pt;border-right:solid windowtext 1.0pt;   padding:0in 5.4pt 0in 5.4pt;height:12.2pt" valign="top" width="23%"> <p align="center" class="C-TableText" style="text-align:center;page-break-after:   avoid"><span lang="DE">3,86<br/>   (3,48 ‑ 4,28)</span></p> </td> <td style="width:20.36%;border-top:none;border-left:   none;border-bottom:solid windowtext 1.0pt;border-right:solid windowtext 1.0pt;   padding:0in 5.4pt 0in 5.4pt;height:12.2pt" valign="top" width="20%"> <p align="center" class="C-TableText" style="text-align:center;page-break-after:   avoid"><span lang="DE">3,05<br/>   (2,62 ‑ 3,55)</span></p> </td> <td style="width:27.12%;border-top:none;border-left:   none;border-bottom:solid windowtext 1.0pt;border-right:solid windowtext 1.0pt;   padding:0in 5.4pt 0in 5.4pt;height:12.2pt" valign="top" width="27%"> <p align="center" class="C-TableText" style="text-align:center;page-break-after:   avoid"><span lang="DE">2,45<br/>   (1,76 ‑ 3,41)</span></p> </td> </tr> <tr style="page-break-inside:avoid;height:12.2pt"> <td style="width:26.3%;border:solid windowtext 1.0pt;   border-top:none;padding:0in 5.4pt 0in 5.4pt;height:12.2pt" valign="top" width="26%"> <p align="center" class="C-TableText" style="text-align:center;page-break-after:   avoid"><span lang="DE">V<sub>ss</sub> (ml/kg)</span></p> </td> <td style="width:23.32%;border-top:none;border-left:   none;border-bottom:solid windowtext 1.0pt;border-right:solid windowtext 1.0pt;   padding:0in 5.4pt 0in 5.4pt;height:12.2pt" valign="top" width="23%"> <p align="center" class="C-TableText" style="text-align:center"><span lang="DE">66,5<br/>   (59,8 ‑ 73,9)</span></p> </td> <td style="width:20.36%;border-top:none;border-left:   none;border-bottom:solid windowtext 1.0pt;border-right:solid windowtext 1.0pt;   padding:0in 5.4pt 0in 5.4pt;height:12.2pt" valign="top" width="20%"> <p align="center" class="C-TableText" style="text-align:center"><span lang="DE">63,1<br/>   (56,3 ‑ 70,9)</span></p> </td> <td style="width:27.12%;border-top:none;border-left:   none;border-bottom:solid windowtext 1.0pt;border-right:solid windowtext 1.0pt;   padding:0in 5.4pt 0in 5.4pt;height:12.2pt" valign="top" width="27%"> <p align="center" class="C-TableText" style="text-align:center"><span lang="DE">57,6<br/>   (50,2 ‑ 65,9)</span></p> </td> </tr> <tr style="page-break-inside:avoid;height:12.2pt"> <td colspan="5" style="width:100.0%;border:none;   padding:0in 5.4pt 0in 5.4pt;height:12.2pt" valign="top" width="100%"> <p class="MsoNormal" style="line-height:normal"><sup><span lang="DE">1</span></sup><span lang="DE"> Die pharmakokinetischen Parameter sind als geometrischer Mittelwert   (95%iges KI) angegeben</span></p> <p class="MsoNormal" style="line-height:normal"><span lang="DE">Abkürzungen: KI =   Konfidenzintervall; AUC = Fläche unter der Kurve aus der FVIII‑Aktivität   gegen die Zeit; t<sub>½</sub> = terminale Halbwertszeit; CL = Clearance; MRT   = mittlere Verweildauer; V<sub>ss</sub> = Verteilungsvolumen im   Steady State.</span></p> <p class="MsoNormal" style="line-height:normal"><span lang="DE">* Die   pharmakokinetischen Parameter für das Alter von 12 bis   &lt; 18 Jahren beruhen auf Daten von Patienten sämtlicher   Behandlungsarme in Studie I mit unterschiedlichen Probennahmenplänen.</span></p> </td> </tr> </table><p class="MsoNormal" style="line-height:normal"></p><p class="MsoNormal" style="line-height:normal"><span lang="DE">Im Vergleich zu Jugendlichen und Erwachsenen können Kinder unter 12 Jahren eine höhere Clearance und eine kürzere Halbwertszeit aufweisen, was mit den Daten anderer Gerinnungsfaktoren übereinstimmt. Diese Unterschiede sind bei der Dosierung zu berücksichtigen.</span></p><p class="MsoNormal" style="line-height:normal"></p>
			</div>
		</text>
		
    	    
		
</section>
			    
    	    

			    
		               
<section>
			<title value="5.3     Präklinische Daten zur Sicherheit"/>
				<code>
					<coding>
						<system value="http://spor.ema.europa.eu/v1/example-sections"/>
						<code value="${document[n].section[n].subsection[n].typeCode}"/>
						<display value="${document[n].section[n].subsection[n].typeDisplay}"/>
					</coding>
				</code>
		<text>
			<status value="additional"/>
			<div xmlns="http://www.w3.org/1999/xhtml">
		    <p class="MsoNormal" style="line-height:normal;page-break-after:avoid"></p><p class="MsoNormal" style="line-height:normal"><span lang="DE">Basierend auf den Studien zur akuten Toxizität und zur Toxizität bei wiederholter Gabe (einschließlich Beurteilungen der lokalen Toxizität und der Sicherheitspharmakologie) lassen die präklinischen Daten keine besonderen Gefahren für den Menschen erkennen. Studien zur Untersuchung der Genotoxizität, des kanzerogenen Potentials, der Reproduktionstoxizität oder der embryofetalen Entwicklungstoxizität wurden nicht durchgeführt. In einer Studie zur Plazentagängigkeit wurde gezeigt, dass ELOCTA bei Mäusen in geringen Mengen die Plazenta passiert.</span></p><p class="MsoNormal" style="line-height:normal"></p><p class="MsoNormal" style="line-height:normal"></p>
			</div>
		</text>
		
    	    
		
</section>
			    
    	    
		
</section>
			    
    	    
				
			    
						
		               
<section>
			<title value="6.       PHARMAZEUTISCHE ANGABEN"/>
				<code>
					<coding>
						<system value="http://spor.ema.europa.eu/v1/example-sections"/>
						<code value="${document[n].section[n].subsection[n].typeCode}"/>
						<display value="${document[n].section[n].subsection[n].typeDisplay}"/>
					</coding>
				</code>
		<text>
			<status value="additional"/>
			<div xmlns="http://www.w3.org/1999/xhtml">
		    <p class="MsoNormal" style="line-height:normal;page-break-after:avoid"></p>
			</div>
		</text>
		
    	    

			    
		               
<section>
			<title value="6.1     Liste der sonstigen Bestandteile"/>
				<code>
					<coding>
						<system value="http://spor.ema.europa.eu/v1/example-sections"/>
						<code value="${document[n].section[n].subsection[n].typeCode}"/>
						<display value="${document[n].section[n].subsection[n].typeDisplay}"/>
					</coding>
				</code>
		<text>
			<status value="additional"/>
			<div xmlns="http://www.w3.org/1999/xhtml">
		    <p class="MsoNormal" style="line-height:normal;page-break-after:avoid"></p><p class="MsoNormal" style="line-height:normal;page-break-after:avoid"><u><span lang="DE">Pulver:</span></u></p><p class="MsoNormal" style="line-height:normal;text-autospace:none"><span lang="DE">Sucrose</span></p><p class="MsoNormal" style="line-height:normal;text-autospace:none"><span lang="DE">Natriumchlorid</span></p><p class="MsoNormal" style="line-height:normal;text-autospace:none"><span lang="DE">Histidin</span></p><p class="MsoNormal" style="line-height:normal;text-autospace:none"><span lang="DE">Calciumchlorid-Dihydrat</span></p><p class="MsoNormal" style="line-height:normal;text-autospace:none"><span lang="DE">Polysorbat 20</span></p><p class="MsoNormal" style="line-height:normal;text-autospace:none"><span lang="DE">Natriumhydroxid (zur pH‑Einstellung)</span></p><p class="MsoNormal" style="line-height:normal;text-autospace:none"><span lang="DE">Salzsäure (zur pH‑Einstellung)</span></p><p class="MsoNormal" style="line-height:normal;text-autospace:none"></p><p class="MsoNormal" style="line-height:normal;page-break-after:avoid"><u><span lang="DE">Lösungsmittel:</span></u></p><p class="MsoNormal" style="line-height:normal;text-autospace:none"><span lang="DE">Wasser für Injektionszwecke</span></p><p class="MsoNormal" style="line-height:normal"></p>
			</div>
		</text>
		
    	    
		
</section>
			    
    	    

			    
		               
<section>
			<title value="6.2     Inkompatibilitäten"/>
				<code>
					<coding>
						<system value="http://spor.ema.europa.eu/v1/example-sections"/>
						<code value="${document[n].section[n].subsection[n].typeCode}"/>
						<display value="${document[n].section[n].subsection[n].typeDisplay}"/>
					</coding>
				</code>
		<text>
			<status value="additional"/>
			<div xmlns="http://www.w3.org/1999/xhtml">
		    <p class="MsoNormal" style="line-height:normal;page-break-after:avoid"></p><p class="MsoNormal" style="line-height:normal;text-autospace:none"><span lang="DE">Da keine Kompatibilitätsstudien durchgeführt wurden, darf dieses Arzneimittel nicht mit anderen Arzneimitteln gemischt werden.</span></p><p class="MsoNormal" style="line-height:normal"></p><p class="MsoNormal" style="line-height:normal"><span lang="DE">Nur das beigefügte Infusionsset sollte benutzt werden, da es infolge der Adsorption von Gerinnungsfaktor VIII an den Innenflächen einiger Injektionsausrüstungen zu einem Behandlungsversagen kommen kann.</span></p><p class="MsoNormal" style="line-height:normal"></p>
			</div>
		</text>
		
    	    
		
</section>
			    
    	    

			    
		               
<section>
			<title value="6.3     Dauer der Haltbarkeit"/>
				<code>
					<coding>
						<system value="http://spor.ema.europa.eu/v1/example-sections"/>
						<code value="${document[n].section[n].subsection[n].typeCode}"/>
						<display value="${document[n].section[n].subsection[n].typeDisplay}"/>
					</coding>
				</code>
		<text>
			<status value="additional"/>
			<div xmlns="http://www.w3.org/1999/xhtml">
		    <p class="MsoNormal" style="line-height:normal;page-break-after:avoid"></p><p class="MsoNormal" style="line-height:normal;page-break-after:avoid"><u><span lang="DE">Ungeöffnete Durchstechflasche</span></u></p><p class="MsoNormal" style="line-height:normal"><span lang="DE">4 Jahre</span></p><p class="MsoNormal" style="line-height:normal"></p><p class="MsoNormal" style="line-height:normal"><span lang="DE">Während der Dauer der Haltbarkeit kann das Arzneimittel einmalig für bis zu 6 Monate bei Raumtemperatur (bis zu 30 °C) aufbewahrt werden. Das Datum der Entnahme aus dem Kühlschrank sollte auf dem Umkarton vermerkt werden. </span><span lang="DE">Nach Aufbewahrung bei Raumtemperatur darf das Arzneimittel nicht wieder im Kühlschrank gelagert werden. Das Arzneimittel darf n</span><span lang="DE">ach dem auf der Durchstechflasche angegebenen Verfalldatum oder sechs Monate nach der Entnahme des Umkartons aus dem Kühlschrank (je nachdem, welches Datum früher eintritt) nicht mehr verwendet werden.</span></p><p class="MsoNormal" style="line-height:normal"></p><p class="MsoNormal" style="line-height:normal;page-break-after:avoid"><u><span lang="DE">Nach Rekonstitution</span></u></p><p class="MsoNormal" style="line-height:normal"><span lang="DE">Die chemische und physikalische Stabilität nach Rekonstitution wurde für 6 Stunden nachgewiesen, wenn das rekonstituierte Arzneimittel bei Raumtemperatur (bis zu 30 °C) aufbewahrt wird. Arzneimittel v</span><span lang="DE">or direkter Sonneneinstrahlung schützen. </span><span lang="DE">Nach der Rekonstitution muss das Arzneimittel entsorgt werden, wenn es nicht innerhalb von 6 Stunden verwendet wird. </span><span lang="DE">Aus mikrobiologischer Sicht sollte das Arzneimittel sofort nach der Rekonstitution verwendet werden. Wenn das Arzneimittel nicht sofort verwendet wird, liegen die Aufbewahrungszeiten während der Anwendung und die Aufbewahrungsbedingungen vor der Anwendung in der Verantwortlichkeit des Anwenders.</span></p><p class="MsoNormal" style="line-height:normal"></p>
			</div>
		</text>
		
    	    
		
</section>
			    
    	    

			    
		               
<section>
			<title value="6.4     Besondere Vorsichtsmaßnahmen für die Aufbewahrung"/>
				<code>
					<coding>
						<system value="http://spor.ema.europa.eu/v1/example-sections"/>
						<code value="${document[n].section[n].subsection[n].typeCode}"/>
						<display value="${document[n].section[n].subsection[n].typeDisplay}"/>
					</coding>
				</code>
		<text>
			<status value="additional"/>
			<div xmlns="http://www.w3.org/1999/xhtml">
		    <p class="MsoNormal" style="line-height:normal;page-break-after:avoid"></p><p class="MsoNormal" style="line-height:normal"><span lang="DE">Im Kühlschrank lagern (2 °C ‑ 8 °C). Nicht einfrieren. Die Durchstechflasche im Umkarton aufbewahren, um den Inhalt vor Licht zu schützen.</span></p><p class="MsoNormal" style="line-height:normal"></p><p class="MsoNormal" style="line-height:normal"><span lang="DE">Aufbewahrungsbedingungen nach Rekonstitution des Arzneimittels, siehe Abschnitt 6.3.</span></p><p class="MsoNormal" style="line-height:normal"></p>
			</div>
		</text>
		
    	    
		
</section>
			    
    	    

			    
		               
<section>
			<title value="6.5     Art und Inhalt des Behältnisses"/>
				<code>
					<coding>
						<system value="http://spor.ema.europa.eu/v1/example-sections"/>
						<code value="${document[n].section[n].subsection[n].typeCode}"/>
						<display value="${document[n].section[n].subsection[n].typeDisplay}"/>
					</coding>
				</code>
		<text>
			<status value="additional"/>
			<div xmlns="http://www.w3.org/1999/xhtml">
		    <p class="MsoNormal" style="line-height:normal;page-break-after:avoid"></p><p class="MsoNormal" style="line-height:normal;page-break-after:avoid"><span lang="DE">Jede Packung enthält:</span></p><p class="MsoNormal" style="margin-left:28.35pt;text-indent:-28.35pt;line-height: normal;page-break-after:avoid"><span lang="DE">-</span><span lang="DE">Pulver in einer Durchstechflasche (Typ‑1-Glas) mit einem Chlorobutyl-Gummistopfen</span></p><p class="MsoNormal" style="margin-left:28.35pt;text-indent:-28.35pt;line-height: normal;page-break-after:avoid"><span lang="DE">-</span><span lang="DE">3 ml Lösungsmittel in einer Fertigspritze (Typ‑1-Glas) mit einem Bromobutyl-Gummikolbenstopfen</span></p><p class="MsoNormal" style="margin-left:28.35pt;text-indent:-28.35pt;line-height: normal;page-break-after:avoid"><span lang="DE">-</span><span lang="DE">eine Kolbenstange</span></p><p class="MsoNormal" style="margin-left:28.35pt;text-indent:-28.35pt;line-height: normal;page-break-after:avoid"><span lang="DE">-</span><span lang="DE">einen sterilen Durchstechflaschen-Adapter für die Rekonstitution</span></p><p class="MsoNormal" style="margin-left:28.35pt;text-indent:-28.35pt;line-height: normal;page-break-after:avoid"><span lang="DE">-</span><span lang="DE">ein steriles Infusionsset</span></p><p class="MsoNormal" style="margin-left:28.35pt;text-indent:-28.35pt;line-height: normal"><span lang="DE">-</span><span lang="DE">zwei Alkoholtupfer</span></p><p class="MsoNormal" style="margin-left:28.35pt;text-indent:-28.35pt;line-height: normal"><span lang="DE">-</span><span lang="DE">zwei Pflaster</span></p><p class="MsoNormal" style="margin-left:28.35pt;text-indent:-28.35pt;line-height: normal"><span lang="DE">-</span><span lang="DE">einen Gazetupfer</span></p><p class="MsoNormal" style="line-height:normal"></p><p class="MsoNormal" style="line-height:normal"><span lang="DE">Packungsgröße: 1 Einheit.</span></p><p class="MsoNormal" style="line-height:normal"></p>
			</div>
		</text>
		
    	    
		
</section>
			    
    	    

			    
		               
<section>
			<title value="6.6     Besondere Vorsichtsmaßnahmen für die Beseitigung und sonstige Hinweise zur Handhabung"/>
				<code>
					<coding>
						<system value="http://spor.ema.europa.eu/v1/example-sections"/>
						<code value="${document[n].section[n].subsection[n].typeCode}"/>
						<display value="${document[n].section[n].subsection[n].typeDisplay}"/>
					</coding>
				</code>
		<text>
			<status value="additional"/>
			<div xmlns="http://www.w3.org/1999/xhtml">
		    <p class="MsoNormal" style="line-height:normal;page-break-after:avoid;text-autospace: none"></p><p class="MsoNormal" style="line-height:normal"><span lang="DE">Das lyophilisiertes Pulver zur Injektion in der Durchstechflasche muss mit dem bereitgestellten Lösungsmittel (Wasser für Injektionszwecke) aus der Fertigspritze unter Verwendung des sterilen Durchstechflaschen-Adapters rekonstituiert werden.</span></p><p class="MsoNormal" style="line-height:normal"><span lang="DE">Die Durchstechflasche sollte vorsichtig geschwenkt werden, bis sich das Pulver vollständig aufgelöst hat.</span></p><p class="MsoNormal" style="line-height:normal"></p><p class="MsoNormal" style="line-height:normal;text-autospace:none"><span lang="DE">Das rekonstituierte Arzneimittel sollte vor der Verabreichung einer Sichtprüfung auf Partikel und Verfärbungen unterzogen werden. Die Lösung sollte klar bis schwach schillernd und farblos sein. Die Lösung darf nicht verwendet werden, wenn sie trübe ist oder Ablagerungen zu sehen sind. </span></p><p class="MsoNormal" style="line-height:normal"></p><p class="MsoNormal" style="line-height:normal;page-break-after:avoid"><u><span lang="DE">Zusätzliche Informationen zur Rekonstitution und Verabreichung:</span></u></p><p class="MsoNormal" style="line-height:normal;page-break-after:avoid"></p><p class="MsoNormal" style="line-height:normal;page-break-after:avoid"><span lang="DE">ELOCTA wird mittels intravenöser (i.v.) Injektion verabreicht, nachdem das Pulver zur Herstellung einer Injektionszubereitung mit dem bereitgestellten Lösungsmittel aus der Fertigspritze aufgelöst wurde. Eine Packung ELOCTA enthält:</span></p><p class="MsoNormal" style="line-height:normal;page-break-after:avoid"></p><p class="MsoNormal" style="line-height:normal;page-break-after:avoid"></p><p class="MsoNormal" style="line-height:normal;page-break-after:avoid"></p><p class="MsoNormal" style="line-height:normal;page-break-after:avoid"> <table align="left" cellpadding="0" cellspacing="0"> <tr> <td height="8055" width="53"></td> <td width="438"></td> <td width="110"></td> <td width="350"></td> </tr> <tr> <td height="206"></td> <td align="left" valign="top"><img height="137" src="#image0" width="292"/></td> <td></td> <td align="left" rowspan="2" valign="top"><img alt="A) 1 Durchstechflasche mit Pulver B) 3 ml Lösungsmittel in einer Fertigspritze C) 1 Kolbenstange  D) 1 Durchstechflaschen-Adapter  E) 1 Infusionsset F) 2 Alkoholtupfer G) 2 Pflaster  H) 1 Gazetupfer " height="172" src="#image1" width="233"/></td> </tr> <tr> <td height="52"></td> </tr> </table> </p><p class="MsoNormal" style="line-height:normal;page-break-after:avoid"></p><p class="MsoNormal" style="line-height:normal;page-break-after:avoid"></p><p class="MsoNormal" style="line-height:normal;page-break-after:avoid"></p><p class="MsoNormal" style="margin-right:-.1pt;line-height:normal;page-break-after: avoid"></p><p class="MsoNormal" style="margin-right:-.1pt;line-height:normal;page-break-after: avoid"></p><p class="MsoNormal" style="margin-right:-.1pt;line-height:normal"></p><p class="MsoNormal" style="margin-right:-.1pt;line-height:normal"></p><p class="MsoNormal" style="margin-right:-.1pt;line-height:normal"></p><p class="MsoNormal" style="margin-right:-.1pt;line-height:normal"></p><p class="MsoNormal" style="margin-right:-.1pt;line-height:normal"></p><br clear="ALL"/><p class="MsoNormal" style="line-height:normal"><span lang="DE">ELOCTA sollte nicht mit anderen Injektions- oder Infusionslösungen gemischt werden.</span></p><p class="MsoNormal" style="margin-right:-.1pt;line-height:normal"></p><p class="MsoNormal" style="margin-right:-.1pt;line-height:normal"><span lang="DE">Waschen Sie sich die Hände, bevor Sie die Packung öffnen.</span></p><p class="MsoNormal" style="margin-right:-.1pt;line-height:normal"></p><p class="MsoNormal" style="margin-right:-.1pt;line-height:normal;page-break-after: avoid"><b><span lang="DE">Zubereitung:</span></b></p><p class="MsoNormal" style="margin-right:-.1pt;line-height:normal;page-break-after: avoid"></p><p class="MsoNormal" style="line-height:12.0pt"><span lang="EN-GB"><img border="0" height="817" id="Picture 8" src="#image2" width="624"/></span></p><p class="MsoNormal" style="line-height:normal"></p><p class="MsoNormal" style="line-height:normal"><b><span lang="DE">Verabreichung (intravenöse Injektion):</span></b></p><p class="MsoListParagraphCxSpFirst" style="margin-left:0in"></p><p class="MsoListParagraphCxSpMiddle" style="margin-left:0in"><span lang="DE" style="font-size:11.0pt">ELOCTA sollte mit dem der Packung beiliegenden Infusionsset (E) verabreicht werden.</span></p><p class="MsoListParagraphCxSpLast" style="margin-left:0in"></p><p class="MsoNormal" style="line-height:12.0pt"><span lang="EN-GB"><img border="0" height="711" id="Picture 7" src="#image3" width="624"/></span></p><p class="MsoNormal" style="line-height:normal"><span lang="DE">Nicht verwendetes Arzneimittel oder Abfallmaterial ist entsprechend den nationalen Anforderungen zu beseitigen.</span></p><p class="MsoNormal" style="line-height:normal"></p><p class="MsoNormal" style="line-height:normal"></p>
			</div>
		</text>
		
    	    
		
</section>
			    
    	    
		
</section>
			    
    	    
				
			    
						
		               
<section>
			<title value="7.       INHABER DER ZULASSUNG"/>
				<code>
					<coding>
						<system value="http://spor.ema.europa.eu/v1/example-sections"/>
						<code value="${document[n].section[n].subsection[n].typeCode}"/>
						<display value="${document[n].section[n].subsection[n].typeDisplay}"/>
					</coding>
				</code>
		<text>
			<status value="additional"/>
			<div xmlns="http://www.w3.org/1999/xhtml">
		    <p class="MsoNormal" style="line-height:normal;page-break-after:avoid"></p><p class="MsoNormal" style="line-height:normal;page-break-after:avoid"><span lang="DE">Swedish Orphan Biovitrum AB (publ)</span></p><p class="MsoNormal" style="line-height:normal;page-break-after:avoid"><span lang="DE">SE-112 76 Stockholm,</span></p><p class="MsoNormal" style="line-height:normal"><span lang="DE">Schweden</span></p><p class="MsoNormal" style="line-height:normal"></p><p class="MsoNormal" style="line-height:normal"></p>
			</div>
		</text>
		
    	    
		
</section>
			    
    	    
				
			    
						
		               
<section>
			<title value="8.       ZULASSUNGSNUMMER(N)"/>
				<code>
					<coding>
						<system value="http://spor.ema.europa.eu/v1/example-sections"/>
						<code value="${document[n].section[n].subsection[n].typeCode}"/>
						<display value="${document[n].section[n].subsection[n].typeDisplay}"/>
					</coding>
				</code>
		<text>
			<status value="additional"/>
			<div xmlns="http://www.w3.org/1999/xhtml">
		    <p class="MsoNormal" style="line-height:normal;page-break-after:avoid"></p><p class="MsoNormal" style="line-height:normal"><span lang="PT">EU/1/15/1046/001</span></p><p class="MsoNormal" style="line-height:normal"><span lang="PT">EU/1/15/1046/002</span></p><p class="MsoNormal" style="line-height:normal"><span lang="PT">EU/1/15/1046/003</span></p><p class="MsoNormal" style="line-height:normal"><span lang="PT">EU/1/15/1046/004</span></p><p class="MsoNormal" style="line-height:normal"><span lang="PT">EU/1/15/1046/005</span></p><p class="MsoNormal" style="line-height:normal"><span lang="DE">EU/1/15/1046/006</span></p><p class="MsoNormal" style="line-height:normal"><span lang="DE">EU/1/15/1046/007</span></p><p class="MsoNormal" style="line-height:normal"><span lang="DE">EU/1/15/1046/008</span></p><p class="MsoNormal" style="line-height:normal"></p><p class="MsoNormal" style="line-height:normal"></p>
			</div>
		</text>
		
    	    
		
</section>
			    
    	    
				
			    
						
		               
<section>
			<title value="9.       DATUM DER ERTEILUNG DER ZULASSUNG/VERLÄNGERUNG DER ZULASSUNG"/>
				<code>
					<coding>
						<system value="http://spor.ema.europa.eu/v1/example-sections"/>
						<code value="${document[n].section[n].subsection[n].typeCode}"/>
						<display value="${document[n].section[n].subsection[n].typeDisplay}"/>
					</coding>
				</code>
		<text>
			<status value="additional"/>
			<div xmlns="http://www.w3.org/1999/xhtml">
		    <p class="MsoNormal" style="line-height:normal;page-break-after:avoid"></p><p class="MsoNormal" style="line-height:normal"><span lang="DE">Datum der Erteilung der Zulassung: 19. November 2015</span></p><p class="MsoNormal" style="line-height:normal"><span lang="DE">Datum der letzten Verlängerung der Zulassung: 19. August 2020</span></p><p class="MsoNormal" style="line-height:normal"></p><p class="MsoNormal" style="line-height:normal"></p>
			</div>
		</text>
		
    	    
		
</section>
			    
    	    
				
			    
						
		               
<section>
			<title value="10.     STAND DER INFORMATION"/>
				<code>
					<coding>
						<system value="http://spor.ema.europa.eu/v1/example-sections"/>
						<code value="${document[n].section[n].subsection[n].typeCode}"/>
						<display value="${document[n].section[n].subsection[n].typeDisplay}"/>
					</coding>
				</code>
		<text>
			<status value="additional"/>
			<div xmlns="http://www.w3.org/1999/xhtml">
		    <p class="MsoNormal" style="line-height:normal;page-break-after:avoid"></p><p class="MsoNormal" style="line-height:normal;page-break-after:avoid"></p><p class="MsoNormal" style="margin-right:-.1pt;line-height:normal"><span lang="DE">Ausführliche Informationen zu diesem Arzneimittel sind auf den Internetseiten der Europäischen Arzneimittel-Agentur </span><span lang="EN-GB"><a href="http://www.ema.europa.eu/"><span lang="DE">http://www.ema.europa.eu</span></a></span><span lang="DE"> verfügbar.</span></p><p class="MsoNormal" style="line-height:normal"></p><span lang="DE" style='font-size:11.0pt;font-family:"Times New Roman",serif'><br clear="all" style="page-break-before:always"/> </span>
			</div>
		</text>
		
    	    
		
</section>
			    
    	    
		
	
</section>
							<!-- sections can repeat as necessary -->
						</Composition>
					</resource>
				</entry>
				
			</Bundle>
		</resource>
	</entry>
</Bundle>