<?xml version="1.0" encoding="UTF-8"?>
<!-- This is a template for a FHIR resource, and needs items (marked with "${}") replacing to make a real instance -->
<!-- The resulting instance is a Bundle of Bundles, each of which is a document (having a Composition, and supporting resources) -->
<!-- 2020-02-22 -->
<!-- This is for FHIR version R5 Preview 2 (May 2020) -->
<Bundle xmlns="http://hl7.org/fhir">
	<type value="collection"/>
	<!-- Repeat at this level per document -->
	<entry>
		<fullUrl value="urn:uuid:7c2305f1-f113-412d-9064-decbe562ad0d"/>
		<!-- Top level of each document is a also FHIR Bundle, of type "document"
		 see http://hl7.org/fhir/documents.html, http://hl7.org/fhir/bundle.html
	 	 All the other resources for this document are within this. -->
		<resource>
            <Bundle>
            	<!-- When PUTing, some servers mandate an id here to match the existing id -->
            	<id value="03df0697-782d-49cf-8359-70154fd911e7"/>
				<!-- document bundles must have an identifier (bdl-9) -->
				<identifier>
					<!-- possibly different identifier types may be needed here -->
					<system value="http://ema.europa.eu/fhir/identifier/documentid"/>
					<value value="${instance.bundle[n].Identifier}"/>
				</identifier>
				<!-- fixed code -->
				<type value="document" /> 
            	<!-- document bundles must have a date (bdl-10) -->
            	<timestamp value="2021-06-01T19:03:31Z"/>
				<!-- a repeating set of entry elements, each with a FHIR resource inside -->
				<entry>
					<!-- fullUrl is mandatory for each entry in document Bundle. It is a random uuid. http://build.fhir.org/bundle.html#bundle-unique -->
					<fullUrl value="urn:uuid:6ee4a22b-2aad-47ab-a536-6dc3fa8b2829"/>
					<resource>
						<!-- the first resource must be Composition (bdl-11) -->
						<!-- This is the overall document structure. -->
						<!-- see definition http://hl7.org/fhir/composition.html, and similar for other resources -->
                        <Composition>
                        	<!-- images if requied within html text of this document -->
							
							<contained>
                                <Binary>
                                	<id value="image0"/>
                                	<!-- example format -->
                                	<contentType value="image/png"/>
									<!-- data is base 64 encoded, actual bytes of the image png file -->
                                	<data value=""/>
								</Binary>
							</contained>
							<!-- this exension is necessary per image -->
                <extension url="http://ema.europa.eu/fhir/extension/dummyValidationReference">
                        		<valueReference>
                        			<reference value="#image0"/>
                        		</valueReference>
               </extension>
              
							<contained>
                                <Binary>
                                	<id value="image1"/>
                                	<!-- example format -->
                                	<contentType value="image/png"/>
									<!-- data is base 64 encoded, actual bytes of the image png file -->
                                	<data value=""/>
								</Binary>
							</contained>
							<!-- this exension is necessary per image -->
                <extension url="http://ema.europa.eu/fhir/extension/dummyValidationReference">
                        		<valueReference>
                        			<reference value="#image1"/>
                        		</valueReference>
               </extension>
              
							<contained>
                                <Binary>
                                	<id value="image2"/>
                                	<!-- example format -->
                                	<contentType value="image/png"/>
									<!-- data is base 64 encoded, actual bytes of the image png file -->
                                	<data value=""/>
								</Binary>
							</contained>
							<!-- this exension is necessary per image -->
                <extension url="http://ema.europa.eu/fhir/extension/dummyValidationReference">
                        		<valueReference>
                        			<reference value="#image2"/>
                        		</valueReference>
               </extension>
              
							<contained>
                                <Binary>
                                	<id value="image3"/>
                                	<!-- example format -->
                                	<contentType value="image/png"/>
									<!-- data is base 64 encoded, actual bytes of the image png file -->
                                	<data value=""/>
								</Binary>
							</contained>
							<!-- this exension is necessary per image -->
                <extension url="http://ema.europa.eu/fhir/extension/dummyValidationReference">
                        		<valueReference>
                        			<reference value="#image3"/>
                        		</valueReference>
               </extension>
              
              
              <contained>
                          <Binary>
                            <id value="stylesheet0"/>
                            <!-- example format -->
                            <contentType value="stylesheet/css"/>
                            <!-- data is base 64 encoded, actual bytes of the image png file -->
                            <data value=""/>
                          </Binary>
                        </contained>
                        <!-- this exension is necessary per image -->
                        <extension url="http://ema.europa.eu/fhir/extension/dummyValidationReference">
                          <valueReference>
                            <reference value="#stylesheet0"/>
                          </valueReference>
                        </extension>
              
              <status value="final"/>
							<!-- document type -->
							<type>
								<coding>
									<system value="http://spor.ema.europa.eu/v1/lists/100000155531"/>
									<code value="${document[n].documentTypeCode}"/>
									<display value="${document[n].documentTypeDisplay}"/>
								</coding>
							</type>
							<subject>
								<!-- links to the List resource in this bundle - local url format -->
								<reference value="[]"/> <!-- local url format -->
								<!--reference value="${instance.bundle[n].listUuid}"/--> <!-- uuid url format. Possible alternate format may be neeed -->
							</subject>
                        	<!-- mandatory date of the document -->
                        	<date value="2021-02-01"/>
							<author>
								<identifier>
									<system value="http://spor.ema.europa.eu/v1/locations" />
									<value value="" />
								</identifier>
							</author>
                        	<title value="${document[n].title}"/>
							<relatesTo>
								<code value="appends"/>
								<targetReference>
									<!-- reference to another Composition -->
									<reference value="${document[n].relatesTo}"/>
								</targetReference>
							</relatesTo>
							<!-- main sections of the document, to follow the QRD template -->
	               			
<section>
	
		
			<title value="SUMMARY OF PRODUCT CHARACTERISTICS"/>
				<code>
					<coding>
						<system value="http://spor.ema.europa.eu/v1/example-sections"/>
						<code value="${document[n].section[n].subsection[n].typeCode}"/>
						<display value="${document[n].section[n].subsection[n].typeDisplay}"/>
					</coding>
				</code>
		<text>
			<status value="additional"/>
			<div xmlns="http://www.w3.org/1999/xhtml">
		    <p align="center" class="MsoNormal" style="text-align:center;line-height:normal"></p><span lang="EN-GB" style='font-size:11.0pt;font-family:"Times New Roman",serif'><br clear="all" style="page-break-before:always"/> </span><br clear="all" style="page-break-before:always"/><p class="MsoNormal" style="line-height:normal"></p>
			</div>
		</text>
		
		
    	    
				
			    
						
		               
<section>
			<title value="1.       NAME OF THE MEDICINAL PRODUCT"/>
				<code>
					<coding>
						<system value="http://spor.ema.europa.eu/v1/example-sections"/>
						<code value="${document[n].section[n].subsection[n].typeCode}"/>
						<display value="${document[n].section[n].subsection[n].typeDisplay}"/>
					</coding>
				</code>
		<text>
			<status value="additional"/>
			<div xmlns="http://www.w3.org/1999/xhtml">
		    <p class="MsoNormal" style="line-height:normal;page-break-after:avoid"></p><p class="MsoNormal" style="line-height:normal"><span lang="EN-GB">ELOCTA 250 IU powder and solvent for solution for injection</span></p><p class="MsoNormal" style="line-height:normal"></p><p class="MsoNormal" style="line-height:normal"><span lang="EN-GB">ELOCTA 500 IU powder and solvent for solution for injection</span></p><p class="MsoNormal" style="line-height:normal"></p><p class="MsoNormal" style="line-height:normal"><span lang="EN-GB">ELOCTA 750 IU powder and solvent for solution for injection</span></p><p class="MsoNormal" style="line-height:normal"></p><p class="MsoNormal" style="line-height:normal"><span lang="EN-GB">ELOCTA 1000 IU powder and solvent for solution for injection</span></p><p class="MsoNormal" style="line-height:normal"></p><p class="MsoNormal" style="line-height:normal"><span lang="EN-GB">ELOCTA 1500 IU powder and solvent for solution for injection</span></p><p class="MsoNormal" style="line-height:normal"></p><p class="MsoNormal" style="line-height:normal"><span lang="EN-GB">ELOCTA 2000 IU powder and solvent for solution for injection</span></p><p class="MsoNormal" style="line-height:normal"></p><p class="MsoNormal" style="line-height:normal"><span lang="EN-GB">ELOCTA 3000 IU powder and solvent for solution for injection</span></p><p class="MsoNormal" style="line-height:normal"></p><p class="MsoNormal" style="line-height:normal"><span lang="EN-GB">ELOCTA 4000 IU powder and solvent for solution for injection</span></p><p class="MsoNormal" style="line-height:normal"></p><p class="MsoNormal" style="line-height:normal"></p>
			</div>
		</text>
		
    	    
		
</section>
			    
    	    
				
			    
						
		               
<section>
			<title value="2.       QUALITATIVE AND QUANTITATIVE COMPOSITION"/>
				<code>
					<coding>
						<system value="http://spor.ema.europa.eu/v1/example-sections"/>
						<code value="${document[n].section[n].subsection[n].typeCode}"/>
						<display value="${document[n].section[n].subsection[n].typeDisplay}"/>
					</coding>
				</code>
		<text>
			<status value="additional"/>
			<div xmlns="http://www.w3.org/1999/xhtml">
		    <p class="MsoNormal" style="line-height:normal;page-break-after:avoid"></p><p class="MsoNormal" style="line-height:normal;page-break-after:avoid"><u><span lang="EN-GB">ELOCTA 250 IU powder and solvent for solution for injection</span></u></p><p class="MsoNormal" style="line-height:normal"><span lang="EN-GB">Each vial contains nominally 250 IU efmoroctocog alfa. </span></p><p class="MsoNormal" style="line-height:normal"><span lang="EN-GB">ELOCTA contains approximately 83 IU/mL of recombinant human coagulation factor VIII, efmoroctocog alfa after reconstitution.</span></p><p class="MsoNormal" style="line-height:normal"></p><p class="MsoNormal" style="line-height:normal;page-break-after:avoid"><u><span lang="EN-GB">ELOCTA 500 IU powder and solvent for solution for injection</span></u></p><p class="MsoNormal" style="line-height:normal"><span lang="EN-GB">Each vial contains nominally 500 IU efmoroctocog alfa. ELOCTA contains approximately 167 IU/mL of recombinant efmoroctocog alfa after reconstitution.</span></p><p class="MsoNormal" style="line-height:normal"></p><p class="MsoNormal" style="line-height:normal;page-break-after:avoid"><u><span lang="EN-GB">ELOCTA 750 IU powder and solvent for solution for injection</span></u></p><p class="MsoNormal" style="line-height:normal"><span lang="EN-GB">Each vial contains nominally 750 IU efmoroctocog alfa. ELOCTA contains approximately 250 IU/mL of recombinant efmoroctocog alfa after reconstitution. </span></p><p class="MsoNormal" style="line-height:normal"></p><p class="MsoNormal" style="line-height:normal;page-break-after:avoid"><u><span lang="EN-GB">ELOCTA 1000 IU powder and solvent for solution for injection</span></u></p><p class="MsoNormal" style="line-height:normal"><span lang="EN-GB">Each vial contains nominally 1000 IU efmoroctocog alfa. ELOCTA contains approximately 333 IU/mL of recombinant efmoroctocog alfa after reconstitution. </span></p><p class="MsoNormal" style="line-height:normal"></p><p class="MsoNormal" style="line-height:normal;page-break-after:avoid"><u><span lang="EN-GB">ELOCTA 1500 IU powder and solvent for solution for injection</span></u></p><p class="MsoNormal" style="line-height:normal"><span lang="EN-GB">Each vial contains nominally 1500 IU efmoroctocog alfa. ELOCTA contains approximately 500 IU/mL of recombinant efmoroctocog alfa after reconstitution.</span></p><p class="MsoNormal" style="line-height:normal"></p><p class="MsoNormal" style="line-height:normal;page-break-after:avoid"><u><span lang="EN-GB">ELOCTA 2000 IU powder and solvent for solution for injection</span></u></p><p class="MsoNormal" style="line-height:normal"><span lang="EN-GB">Each vial contains nominally 2000 IU efmoroctocog alfa. ELOCTA contains approximately 667 IU/mL of recombinant efmoroctocog alfa after reconstitution.</span></p><p class="MsoNormal" style="line-height:normal"></p><p class="MsoNormal" style="line-height:normal;page-break-after:avoid"><u><span lang="EN-GB">ELOCTA 3000 IU powder and solvent for solution for injection</span></u></p><p class="MsoNormal" style="line-height:normal"><span lang="EN-GB">Each vial contains nominally 3000 IU efmoroctocog alfa. ELOCTA contains approximately 1000 IU/mL of recombinant efmoroctocog alfa after reconstitution.</span></p><p class="MsoNormal" style="line-height:normal"></p><p class="MsoNormal" style="line-height:normal;page-break-after:avoid"><u><span lang="EN-GB">ELOCTA 4000 IU powder and solvent for solution for injection</span></u></p><p class="MsoNormal" style="line-height:normal"><span lang="EN-GB">Each vial contains nominally 4000 IU efmoroctocog alfa. ELOCTA contains approximately 1333 IU/mL of recombinant efmoroctocog alfa after reconstitution.</span></p><p class="MsoNormal" style="line-height:normal"></p><p class="Default"><span lang="EN-GB" style="font-size:11.0pt;color:windowtext">The potency (International Units (IU)) is determined using the European Pharmacopoeia chromogenic assay. The specific activity of ELOCTA is 4000-10200 IU/mg protein.</span></p><p class="MsoNormal" style="line-height:normal"></p><p class="MsoNormal" style="line-height:normal"><span lang="EN-GB">Efmoroctocog alfa (recombinant human coagulation </span><span lang="EN-GB">factor VIII</span><span lang="EN-GB">, Fc fusion protein (rFVIIIFc)) has 1,890 amino acids. It is produced by recombinant DNA technology in a human embryonic kidney (HEK) cell line without the addition of any exogenous human- or animal-derived protein in the cell culture process, purification or final formulation.</span></p><p class="MsoNormal" style="line-height:normal"></p><p class="MsoNormal" style="line-height:normal;page-break-after:avoid;text-autospace: none"><u><span lang="EN-GB">Excipient with known effect</span></u></p><p class="MsoNormal" style="line-height:normal;text-autospace:none"><span lang="EN-GB">0.6 mmol (or 14 mg) sodium per vial.</span></p><p class="MsoNormal" style="line-height:normal"></p><p class="MsoNormal" style="line-height:normal"><span lang="EN-GB">For the full list of excipients, see section 6.1.</span></p><p class="MsoNormal" style="line-height:normal"></p><p class="MsoNormal" style="line-height:normal"></p>
			</div>
		</text>
		
    	    
		
</section>
			    
    	    
				
			    
						
		               
<section>
			<title value="3.       PHARMACEUTICAL FORM"/>
				<code>
					<coding>
						<system value="http://spor.ema.europa.eu/v1/example-sections"/>
						<code value="${document[n].section[n].subsection[n].typeCode}"/>
						<display value="${document[n].section[n].subsection[n].typeDisplay}"/>
					</coding>
				</code>
		<text>
			<status value="additional"/>
			<div xmlns="http://www.w3.org/1999/xhtml">
		    <p class="MsoNormal" style="line-height:normal;page-break-after:avoid"></p><p class="Default"><span lang="EN-GB" style="font-size:11.0pt;color:windowtext">Powder and solvent for solution for injection.</span></p><p class="Default"></p><p class="Default"><span lang="EN-GB" style="font-size:11.0pt;color:windowtext">Powder: lyophilised, white to off-white powder or cake.</span></p><p class="MsoNormal" style="line-height:normal;text-autospace:none"><span lang="EN-GB">Solvent:</span><span lang="EN-GB"> water for injections, a clear, colourless solution.</span></p><p class="MsoNormal" style="line-height:normal"></p><p class="MsoNormal" style="margin-left:28.35pt;text-indent:-28.35pt;line-height: normal"></p>
			</div>
		</text>
		
    	    
		
</section>
			    
    	    
				
			    
						
		               
<section>
			<title value="4.       CLINICAL PARTICULARS"/>
				<code>
					<coding>
						<system value="http://spor.ema.europa.eu/v1/example-sections"/>
						<code value="${document[n].section[n].subsection[n].typeCode}"/>
						<display value="${document[n].section[n].subsection[n].typeDisplay}"/>
					</coding>
				</code>
		<text>
			<status value="additional"/>
			<div xmlns="http://www.w3.org/1999/xhtml">
		    <p class="MsoNormal" style="line-height:normal;page-break-after:avoid"></p>
			</div>
		</text>
		
    	    

			    
		               
<section>
			<title value="4.1     Therapeutic indications"/>
				<code>
					<coding>
						<system value="http://spor.ema.europa.eu/v1/example-sections"/>
						<code value="${document[n].section[n].subsection[n].typeCode}"/>
						<display value="${document[n].section[n].subsection[n].typeDisplay}"/>
					</coding>
				</code>
		<text>
			<status value="additional"/>
			<div xmlns="http://www.w3.org/1999/xhtml">
		    <p class="MsoNormal" style="line-height:normal;page-break-after:avoid"></p><p class="MsoNormal" style="line-height:normal"><span lang="EN-GB">Treatment and prophylaxis of bleeding in patients with haemophilia A (congenital factor VIII deficiency).</span></p><p class="MsoNormal" style="line-height:normal"></p><p class="MsoNormal" style="line-height:normal"><span lang="EN-GB">ELOCTA can be used for all age groups.</span></p><p class="MsoNormal" style="line-height:normal"></p>
			</div>
		</text>
		
    	    
		
</section>
			    
    	    

			    
		               
<section>
			<title value="4.2     Posology and method of administration"/>
				<code>
					<coding>
						<system value="http://spor.ema.europa.eu/v1/example-sections"/>
						<code value="${document[n].section[n].subsection[n].typeCode}"/>
						<display value="${document[n].section[n].subsection[n].typeDisplay}"/>
					</coding>
				</code>
		<text>
			<status value="additional"/>
			<div xmlns="http://www.w3.org/1999/xhtml">
		    <p class="MsoNormal" style="line-height:normal;page-break-after:avoid"></p><p class="MsoNormal" style="line-height:normal;text-autospace:none"><span lang="EN-GB">Treatment should be initiated under the supervision of a physician experienced in the treatment of haemophilia.</span></p><p class="MsoNormal" style="line-height:normal;text-autospace:none"></p><p class="MsoNormal" style="line-height:normal;page-break-after:avoid"><i><u><span lang="EN-GB">Treatment monitoring</span></u></i></p><p class="MsoNormal" style="line-height:normal"><span lang="EN-GB">During the course of treatment, appropriate determination of factor VIII levels (by one-stage clotting or chromogenic assays) is advised to guide the dose to be administered and the frequency of repeated injections. Individual patients may vary in their response to factor VIII, demonstrating different half-lives and recoveries. Dose based on bodyweight may require adjustment in underweight and overweight patients. In the case of major surgical interventions in particular, precise monitoring of the substitution therapy by means of coagulation analysis (plasma factor VIII activity) is indispensable. </span></p><p class="MsoNormal" style="line-height:normal"></p><p class="MsoNormal" style="line-height:normal"><span lang="EN-GB">When using an <i>in vitro</i> thromboplastin time (aPTT)-based one stage clotting assay for determining factor VIII activity in patients blood samples, plasma factor VIII activity results can be significantly affected by both the type of the aPTT reagent and the reference standard used in the assay. Also there can be significant discrepancies between assay results obtained by aPTT-based one stage clotting assay and the chromogenic assay according to Ph. Eur. This is of importance particularly when changing the laboratory and/or reagent used in the assay.</span></p><p class="MsoNormal" style="line-height:normal;text-autospace:none"></p><p class="MsoNormal" style="line-height:normal;page-break-after:avoid"><u><span lang="EN-GB">Posology</span></u></p><p class="MsoNormal" style="line-height:normal;text-autospace:none"><span lang="EN-GB">The dose and duration of the substitution therapy depend on the severity of the factor VIII deficiency, on the location and extent of the bleeding and on the patient's clinical condition. </span></p><p class="MsoNormal" style="line-height:normal"></p><p class="MsoNormal" style="line-height:normal;text-autospace:none"><span lang="EN-GB">The number of units of factor VIII administered is expressed in IU, which are related to the current WHO standard for factor VIII products. Factor VIII activity in plasma is expressed either as a percentage (relative to normal human plasma) or in IU (relative to an International Standard for factor VIII in plasma).</span></p><p class="MsoNormal" style="line-height:normal;text-autospace:none"></p><p class="MsoNormal" style="line-height:normal;text-autospace:none"><span lang="EN-GB">One IU of recombinant factor VIII Fc activity is equivalent to that quantity of factor VIII in one mL of normal human plasma.</span></p><p class="MsoNormal" style="line-height:normal;text-autospace:none"></p><p class="MsoNormal" style="margin-left:17.85pt;text-indent:-17.85pt;line-height: normal;page-break-after:avoid;text-autospace:none"><i><u><span lang="EN-GB">On-demand treatment</span></u></i></p><p class="MsoNormal" style="line-height:normal;text-autospace:none"><span lang="EN-GB">The calculation of the required dose of recombinant factor VIII Fc is based on the empirical finding that 1 IU factor VIII per kg body weight raises the plasma factor VIII activity by 2 IU/dL. The required dose is determined using the following formula: </span></p><p class="MsoNormal" style="line-height:normal;text-autospace:none"></p><p class="MsoNormal" style="line-height:normal;text-autospace:none"><span lang="EN-GB">Required units </span><span lang="EN-GB">= body weight (kg)  desired factor VIII rise (%) (IU/dL)  0.5 (IU/kg per IU/dL)</span></p><p class="MsoNormal" style="line-height:normal;text-autospace:none"></p><p class="MsoNormal" style="line-height:normal;text-autospace:none"><span lang="EN-GB">The amount to be administered and the frequency of administration should always be oriented to the clinical effectiveness in the individual case.</span></p><p class="MsoNormal" style="line-height:normal"></p><p class="MsoNormal" style="line-height:normal"><span lang="EN-GB">In the case of the following haemorrhagic events, the factor VIII activity should not fall below the given plasma activity level (in % of normal or IU/dL) in the corresponding period. Table 1 can be used to guide dosing in bleeding episodes and surgery:</span></p><p class="MsoNormal" style="line-height:normal"></p><p class="MsoNormal" style="margin-left:17.85pt;text-indent:-17.85pt;line-height: normal;page-break-after:avoid;text-autospace:none"><b><span lang="EN-GB">Table 1: Guide to ELOCTA dosing for treatment of bleeding episodes and surgery</span></b></p><p class="MsoNormal" style="line-height:normal;page-break-after:avoid"></p><table border="0" cellpadding="0" cellspacing="0" class="MsoNormalTable" style="margin-left:5.4pt;border-collapse:collapse"> <thead> <tr style="page-break-inside:avoid;height:6.25pt"> <td style="width:140.45pt;border:none;border-bottom:    solid windowtext 1.0pt;padding:0in 5.4pt 0in 5.4pt;height:6.25pt" valign="top" width="187"> <p class="MsoNormal" style="line-height:normal;page-break-after:avoid"><b><span lang="EN-GB">Degree of haemorrhage / Type of surgical procedure</span></b></p> </td> <td style="width:119.45pt;border:none;border-bottom:    solid windowtext 1.0pt;padding:0in 5.4pt 0in 5.4pt;height:6.25pt" valign="top" width="159"> <p class="MsoNormal" style="line-height:normal;page-break-after:avoid"><b><span lang="EN-GB">Factor VIII level required (%) (IU/dL) </span></b></p> </td> <td style="width:216.65pt;border:none;border-bottom:    solid windowtext 1.0pt;padding:0in 5.4pt 0in 5.4pt;height:6.25pt" valign="top" width="289"> <p class="MsoNormal" style="line-height:normal;page-break-after:avoid"><b><span lang="EN-GB">Frequency of doses (hours)/ Duration of therapy (days)</span></b></p> </td> </tr> </thead> <tr style="page-break-inside:avoid;height:18.25pt"> <td style="width:140.45pt;border:none;padding:0in 5.4pt 0in 5.4pt;   height:18.25pt" valign="top" width="187"> <p class="MsoNormal" style="line-height:normal;page-break-after:avoid"><u><span lang="EN-GB">Haemorrhage</span></u></p> </td> <td style="width:119.45pt;border:none;padding:0in 5.4pt 0in 5.4pt;   height:18.25pt" valign="top" width="159"> <p class="MsoNormal" style="line-height:normal;page-break-after:avoid"></p> </td> <td style="width:216.65pt;border:none;padding:0in 5.4pt 0in 5.4pt;   height:18.25pt" valign="top" width="289"> <p class="MsoNormal" style="line-height:normal;page-break-after:avoid"></p> </td> </tr> <tr style="page-break-inside:avoid"> <td style="width:140.45pt;padding:0in 5.4pt 0in 5.4pt" valign="top" width="187"> <p class="MsoNormal" style="line-height:normal;page-break-after:avoid"><span lang="EN-GB">Early haemarthrosis, muscle bleeding or oral bleeding</span></p> </td> <td style="width:119.45pt;padding:0in 5.4pt 0in 5.4pt" valign="top" width="159"> <p class="MsoNormal" style="line-height:normal;page-break-after:avoid"><span lang="EN-GB">20-40</span></p> </td> <td style="width:216.65pt;padding:0in 5.4pt 0in 5.4pt" valign="top" width="289"> <p class="MsoNormal" style="line-height:normal"><span lang="EN-GB">Repeat   injection every 12 to 24 hours for at least 1 day, until the bleeding episode   as indicated by pain is resolved or healing is achieved.</span><sup><span lang="EN-GB"> 1</span></sup></p> <p class="MsoNormal" style="line-height:normal;page-break-after:avoid"></p> </td> </tr> <tr style="page-break-inside:avoid"> <td style="width:140.45pt;padding:0in 5.4pt 0in 5.4pt" valign="top" width="187"> <p class="MsoNormal" style="line-height:normal;page-break-after:avoid"><span lang="EN-GB">More extensive haemarthrosis, muscle bleeding or haematoma</span></p> </td> <td style="width:119.45pt;padding:0in 5.4pt 0in 5.4pt" valign="top" width="159"> <p class="MsoNormal" style="line-height:normal;page-break-after:avoid"><span lang="EN-GB">30-60</span></p> </td> <td style="width:216.65pt;padding:0in 5.4pt 0in 5.4pt" valign="top" width="289"> <p class="MsoNormal" style="line-height:normal"><span lang="EN-GB">Repeat   injection every 12 to 24 hours for 3-4 days or more until pain and acute   disability are resolved.</span><sup><span lang="EN-GB"> 1</span></sup></p> <p class="MsoNormal" style="line-height:normal;page-break-after:avoid"></p> </td> </tr> <tr style="page-break-inside:avoid"> <td style="width:140.45pt;border:none;border-bottom:   solid windowtext 1.0pt;padding:0in 5.4pt 0in 5.4pt" valign="top" width="187"> <p class="MsoNormal" style="line-height:normal;page-break-after:avoid"><span lang="EN-GB">Life threatening haemorrhages</span></p> </td> <td style="width:119.45pt;border:none;border-bottom:   solid windowtext 1.0pt;padding:0in 5.4pt 0in 5.4pt" valign="top" width="159"> <p class="MsoNormal" style="line-height:normal;page-break-after:avoid"><span lang="EN-GB">60-100</span></p> </td> <td style="width:216.65pt;border:none;border-bottom:   solid windowtext 1.0pt;padding:0in 5.4pt 0in 5.4pt" valign="top" width="289"> <p class="MsoNormal" style="line-height:normal"><span lang="EN-GB">Repeat   injection every 8 to 24 hours until threat is resolved.</span></p> <p class="MsoNormal" style="line-height:normal;page-break-after:avoid"></p> </td> </tr> <tr style="page-break-inside:avoid;height:16.4pt"> <td style="width:140.45pt;border:none;padding:0in 5.4pt 0in 5.4pt;   height:16.4pt" valign="top" width="187"> <p class="MsoNormal" style="line-height:normal;page-break-after:avoid"><u><span lang="EN-GB">Surgery</span></u></p> </td> <td style="width:119.45pt;border:none;padding:0in 5.4pt 0in 5.4pt;   height:16.4pt" valign="top" width="159"> <p class="MsoNormal" style="line-height:normal;page-break-after:avoid"></p> </td> <td style="width:216.65pt;border:none;padding:0in 5.4pt 0in 5.4pt;   height:16.4pt" valign="top" width="289"> <p class="MsoNormal" style="line-height:normal;page-break-after:avoid"></p> </td> </tr> <tr style="page-break-inside:avoid"> <td style="width:140.45pt;border:none;border-bottom:   solid windowtext 1.0pt;padding:0in 5.4pt 0in 5.4pt" valign="top" width="187"> <p class="MsoNormal" style="line-height:normal;page-break-after:avoid"><span lang="EN-GB">Minor surgery including tooth extraction</span></p> </td> <td style="width:119.45pt;border:none;border-bottom:   solid windowtext 1.0pt;padding:0in 5.4pt 0in 5.4pt" valign="top" width="159"> <p class="MsoNormal" style="line-height:normal;page-break-after:avoid"><span lang="EN-GB">30-60</span></p> </td> <td style="width:216.65pt;border:none;border-bottom:   solid windowtext 1.0pt;padding:0in 5.4pt 0in 5.4pt" valign="top" width="289"> <p class="MsoNormal" style="line-height:normal"><span lang="EN-GB">Repeat   injection every 24 hours, for at least 1 day, until healing is achieved.</span></p> <p class="MsoNormal" style="line-height:normal;page-break-after:avoid"></p> </td> </tr> <tr style="page-break-inside:avoid"> <td style="width:140.45pt;border:none;border-bottom:   solid windowtext 1.0pt;padding:0in 5.4pt 0in 5.4pt" valign="top" width="187"> <p class="MsoNormal" style="line-height:normal;page-break-after:avoid"><u><span lang="EN-GB">Major surgery</span></u></p> </td> <td style="width:119.45pt;border:none;border-bottom:   solid windowtext 1.0pt;padding:0in 5.4pt 0in 5.4pt" valign="top" width="159"> <p class="MsoNormal" style="line-height:normal;page-break-after:avoid"><span lang="EN-GB">80-100</span></p> <p class="MsoNormal" style="line-height:normal;page-break-after:avoid"><span lang="EN-GB">(pre- and post-operative)</span></p> </td> <td style="width:216.65pt;border:none;border-bottom:   solid windowtext 1.0pt;padding:0in 5.4pt 0in 5.4pt" valign="top" width="289"> <p class="MsoNormal" style="line-height:normal"><span lang="EN-GB">Repeat   injection every 8 to 24 hours as necessary until adequate wound healing, then   therapy at least for another 7 days to maintain a factor VIII activity   of 30% to 60% (IU/dL).</span></p> <p class="MsoNormal" style="line-height:normal;page-break-after:avoid"></p> </td> </tr> </table><p class="MsoNormal" style="line-height:normal"><sup><span lang="EN-GB" style="font-size:10.0pt">1 </span></sup><span lang="EN-GB" style="font-size:10.0pt">In some patients and circumstances the dosing interval can be prolonged up to 36 hours. See section 5.2 for pharmacokinetic data.</span></p><p class="MsoNormal" style="line-height:normal"><u><span lang="EN-GB"></span></u></p><p class="Default" style="page-break-after:avoid"><i><u><span lang="EN-GB" style="font-size:11.0pt;color:windowtext">Prophylaxis </span></u></i></p><p class="MsoNormal" style="line-height:normal"><span lang="EN-GB">For long term prophylaxis, the recommended dose is 50 IU</span><span lang="EN-GB"> of factor VIII per kg body weight at intervals of </span><span lang="EN-GB"> 3 to 5 days. The dose may be adjusted based on patient response in the range of 25 to 65 IU/kg (see section 5.1 and 5.2). </span></p><p class="MsoNormal" style="line-height:normal"><span lang="EN-GB">In some cases, especially in younger patients, shorter dosage intervals or higher doses may be necessary.</span></p><p class="MsoNormal" style="line-height:normal"><i><u><span lang="EN-GB"></span></u></i></p><p class="MsoNormal" style="line-height:normal;page-break-after:avoid;text-autospace: none"><i><u><span lang="EN-GB">Elderly</span></u></i></p><p class="MsoNormal" style="line-height:normal"><span lang="EN-GB">There is limited experience in patients 65 years.</span></p><p class="MsoNormal" style="line-height:normal"></p><p class="MsoNormal" style="line-height:normal;page-break-after:avoid;text-autospace: none"><i><u><span lang="EN-GB">Paediatric population</span></u></i></p><p class="MsoNormal" style="line-height:normal"><span lang="EN-GB">For children below the age of 12, more frequent or higher doses may be required (see section 5.1). For adolescents of 12 years of age and above, the dose recommendations are the same as for adults. </span></p><p class="MsoNormal" style="line-height:normal;page-break-after:avoid;text-autospace: none"><u><span lang="EN-GB">Method of administration </span></u></p><p class="MsoNormal" style="line-height:normal"><span lang="EN-GB">ELOCTA is for intravenous use.</span></p><p class="Default"></p><p class="Default"><span lang="EN-GB" style="font-size:11.0pt;color:windowtext">ELOCTA should be injected intravenously over several minutes. The rate of administration should be determined by the patients comfort level and</span><span lang="EN-GB" style="font-size:11.0pt;color:windowtext"> should not exceed 10 mL/min. </span></p><p class="MsoNormal" style="line-height:normal;text-autospace:none"></p><p class="MsoNormal" style="line-height:normal;text-autospace:none"><span lang="EN-GB">For instructions on reconstitution of the medicinal product before administration, see section 6.6.</span></p><p class="MsoNormal" style="line-height:normal"></p>
			</div>
		</text>
		
    	    
		
</section>
			    
    	    

			    
		               
<section>
			<title value="4.3     Contraindications"/>
				<code>
					<coding>
						<system value="http://spor.ema.europa.eu/v1/example-sections"/>
						<code value="${document[n].section[n].subsection[n].typeCode}"/>
						<display value="${document[n].section[n].subsection[n].typeDisplay}"/>
					</coding>
				</code>
		<text>
			<status value="additional"/>
			<div xmlns="http://www.w3.org/1999/xhtml">
		    <p class="MsoNormal" style="line-height:normal;page-break-after:avoid;text-autospace: none"></p><p class="MsoNormal" style="line-height:normal"><span lang="EN-GB">Hypersensitivity to the active substance or to any of the excipients listed in section 6.1.</span></p><p class="MsoNormal" style="line-height:normal"></p>
			</div>
		</text>
		
    	    
		
</section>
			    
    	    

			    
		               
<section>
			<title value="4.4     Special warnings and precautions for use"/>
				<code>
					<coding>
						<system value="http://spor.ema.europa.eu/v1/example-sections"/>
						<code value="${document[n].section[n].subsection[n].typeCode}"/>
						<display value="${document[n].section[n].subsection[n].typeDisplay}"/>
					</coding>
				</code>
		<text>
			<status value="additional"/>
			<div xmlns="http://www.w3.org/1999/xhtml">
		    <p class="MsoNormal" style="margin-left:28.35pt;text-indent:-28.35pt;line-height: normal;page-break-after:avoid;text-autospace:none"></p><p class="MsoNormal" style="margin-left:28.35pt;text-indent:-28.35pt;line-height: normal;page-break-after:avoid;text-autospace:none"><u><span lang="EN-GB">Hypersensitivity</span></u></p><p class="MsoNormal" style="line-height:normal"><span lang="EN-GB">Allergic type hypersensitivity reactions are possible with ELOCTA. If symptoms of hypersensitivity occur, patients should be advised to discontinue use of the medicinal product immediately and contact their physician. Patients should be informed of the signs of hypersensitivity reactions including hives, generalised urticaria, tightness of the chest, wheezing, hypotension and anaphylaxis. </span></p><p class="MsoNormal" style="line-height:normal"></p><p class="MsoNormal" style="line-height:normal"><span lang="EN-GB">In case of shock, standard medical treatment for shock should be implemented.</span></p><p class="MsoNormal" style="line-height:normal"><u><span lang="EN-GB"></span></u></p><p class="MsoNormal" style="line-height:normal;page-break-after:avoid"><u><span lang="EN-GB">Inhibitors</span></u></p><p class="MsoNormal" style="line-height:normal"><span lang="EN-GB">The formation of neutralising antibodies (inhibitors) to factor VIII is a known complication in the management of individuals with haemophilia A. These inhibitors are usually IgG immunoglobulins directed against the factor VIII procoagulant activity, which are quantified in Bethesda Units (BU) per mL of plasma using the modified assay. The risk of developing inhibitors is correlated to the severity of the disease as well as the exposure to factor VIII, this risk being highest within the first 50 exposure days but continues throughout life although the risk is uncommon.</span></p><p class="MsoNormal" style="line-height:normal"></p><p class="MsoNormal" style="line-height:normal"><span lang="EN-GB">The clinical relevance of inhibitor development will depend on the titre of the inhibitor, with low titre posing less of a risk of insufficient clinical response than high titre inhibitors.</span></p><p class="MsoNormal" style="line-height:normal"></p><p class="MsoNormal" style="line-height:normal"><span lang="EN-GB">In general, all patients treated with coagulation factor VIII products should be carefully monitored for the development of inhibitors by appropriate clinical observations and laboratory tests.</span><span lang="EN-GB"> If the expected factor VIII activity plasma levels are not attained, or if bleeding is not controlled with an appropriate dose, testing for factor VIII inhibitor presence should be performed. In patients with high levels of inhibitor, factor VIII therapy may not be effective and other therapeutic options should be considered. Management of such patients should be directed by physicians with experience in the care of haemophilia and factor VIII inhibitors.</span></p><p class="MsoNormal" style="line-height:normal"></p><p class="MsoNormal" style="line-height:normal;page-break-after:avoid"><u><span lang="EN-GB">Cardiovascular events</span></u></p><p class="MsoNormal" style="line-height:normal"><span lang="EN-GB">In patients with existing cardiovascular risk factors, substitution therapy with FVIII may increase the cardiovascular risk.</span></p><p class="MsoNormal" style="line-height:normal"></p><p class="MsoNormal" style="line-height:normal;page-break-after:avoid"><u><span lang="EN-GB">Catheter-related complications</span></u></p><p class="MsoNormal" style="line-height:normal"><span lang="EN-GB">If a central venous access device (CVAD) is required, risk of CVAD-related complications including local infections, bacteraemia and catheter site thrombosis should be considered.</span></p><p class="MsoNormal" style="line-height:normal"></p><p class="MsoNormal" style="margin-left:28.35pt;text-indent:-28.35pt;line-height: normal;page-break-after:avoid;text-autospace:none"><u><span lang="EN-GB">Traceability </span></u></p><p class="MsoNormal" style="line-height:normal;page-break-after:avoid;text-autospace: none"><span lang="EN-GB">In order to improve traceability of biological medicinal products, the name and the batch number of the administered product should be clearly recorded.</span></p><p class="MsoNormal" style="line-height:normal"></p><p class="Default" style="page-break-after:avoid"><u><span lang="EN-GB" style="font-size:11.0pt;color:windowtext">Paediatric population </span></u></p><p class="MsoNormal" style="line-height:normal"><span lang="EN-GB">The listed warnings and precautions apply both to adults, children and adolescents.</span></p><p class="MsoNormal" style="line-height:normal"></p><p class="MsoNormal" style="line-height:normal;page-break-after:avoid;text-autospace: none"><u><span lang="EN-GB">Excipient related considerations</span></u></p><p class="MsoNormal" style="line-height:normal"><span lang="EN-GB">This medicinal product contains less than 1 mmol sodium (23 mg) per vial, that is to say essentially sodiumfree.</span></p><p class="MsoNormal" style="line-height:normal"><span lang="EN-GB">However, depending on the body weight and posology, the patient could receive more than one vial (see section 2 for information on content per vial). This should be taken into consideration by patients on a controlled sodium diet.</span></p><p class="MsoNormal" style="line-height:normal"></p>
			</div>
		</text>
		
    	    
		
</section>
			    
    	    

			    
		               
<section>
			<title value="4.5     Interaction with other medicinal products and other forms of interaction"/>
				<code>
					<coding>
						<system value="http://spor.ema.europa.eu/v1/example-sections"/>
						<code value="${document[n].section[n].subsection[n].typeCode}"/>
						<display value="${document[n].section[n].subsection[n].typeDisplay}"/>
					</coding>
				</code>
		<text>
			<status value="additional"/>
			<div xmlns="http://www.w3.org/1999/xhtml">
		    <p class="MsoNormal" style="line-height:normal;page-break-after:avoid"></p><p class="MsoNormal" style="line-height:normal"><span lang="EN-GB">No interactions of human coagulation factor VIII (rDNA) with other medicinal products have been reported. No interaction studies have been performed.</span></p><p class="MsoNormal" style="line-height:normal"></p>
			</div>
		</text>
		
    	    
		
</section>
			    
    	    

			    
		               
<section>
			<title value="4.6     Fertility, pregnancy and lactation"/>
				<code>
					<coding>
						<system value="http://spor.ema.europa.eu/v1/example-sections"/>
						<code value="${document[n].section[n].subsection[n].typeCode}"/>
						<display value="${document[n].section[n].subsection[n].typeDisplay}"/>
					</coding>
				</code>
		<text>
			<status value="additional"/>
			<div xmlns="http://www.w3.org/1999/xhtml">
		    <p class="MsoNormal" style="line-height:normal;page-break-after:avoid"></p><p class="Default"><span lang="EN-GB" style="font-size:11.0pt;color:windowtext">Animal reproduction studies have not been conducted with factor VIII. A placental transfer study in mice was conducted with ELOCTA (see section 5.3). Based on the rare occurrence of haemophilia A in women, experience regarding the use of factor VIII during pregnancy and breast-feeding is not available. </span><span lang="EN-GB" style="font-size:11.0pt;color:windowtext">Therefore, factor VIII should be used during pregnancy and breastfeeding only if clearly indicated.</span></p><p class="MsoNormal" style="line-height:normal"></p>
			</div>
		</text>
		
    	    
		
</section>
			    
    	    

			    
		               
<section>
			<title value="4.7     Effects on ability to drive and use machines"/>
				<code>
					<coding>
						<system value="http://spor.ema.europa.eu/v1/example-sections"/>
						<code value="${document[n].section[n].subsection[n].typeCode}"/>
						<display value="${document[n].section[n].subsection[n].typeDisplay}"/>
					</coding>
				</code>
		<text>
			<status value="additional"/>
			<div xmlns="http://www.w3.org/1999/xhtml">
		    <p class="MsoNormal" style="line-height:normal;page-break-after:avoid"></p><p class="MsoNormal" style="line-height:normal"><span lang="EN-GB">ELOCTA has no influence on the ability to drive and use machines.</span></p><p class="MsoNormal" style="line-height:normal"></p>
			</div>
		</text>
		
    	    
		
</section>
			    
    	    

			    
		               
<section>
			<title value="4.8     Undesirable effects"/>
				<code>
					<coding>
						<system value="http://spor.ema.europa.eu/v1/example-sections"/>
						<code value="${document[n].section[n].subsection[n].typeCode}"/>
						<display value="${document[n].section[n].subsection[n].typeDisplay}"/>
					</coding>
				</code>
		<text>
			<status value="additional"/>
			<div xmlns="http://www.w3.org/1999/xhtml">
		    <p class="Default" style="page-break-after:avoid;text-autospace:ideograph-numeric ideograph-other"><u><span lang="EN-GB" style="font-size:11.0pt;color:windowtext"></span></u></p><p class="Default" style="page-break-after:avoid;text-autospace:ideograph-numeric ideograph-other"><u><span lang="EN-GB" style="font-size:11.0pt;color:windowtext">Summary of the safety profile </span></u></p><p class="MsoNormal" style="line-height:normal;text-autospace:none"><span lang="EN-GB">Hypersensitivity or allergic reactions (which may include </span><span lang="EN-GB">angioedema, burning and stinging at the infusion site, chills, flushing, generalised urticaria, headache, hives, hypotension, lethargy, nausea, restlessness, tachycardia, tightness of the chest, tingling, vomiting, wheezing</span><span lang="EN-GB">) have been observed rarely</span><span lang="EN-GB">and may in some cases progress to severe anaphylaxis (including shock).</span></p><p class="MsoNormal" style="line-height:normal;text-autospace:none"></p><p class="Default" style="page-break-after:avoid;text-autospace:ideograph-numeric ideograph-other"><span style="font-size:11.0pt">Development of neutralising antibodies (inhibitors) may occur in patients with haemophilia A treated with factor VIII, including with ELOCTA.</span><span style="font-size:11.0pt"> If such inhibitors occur, the condition will manifest itself as an insufficient clinical response. In such cases, it is recommended that a specialised haemophilia centre be contacted. </span></p><p class="Default" style="page-break-after:avoid;text-autospace:ideograph-numeric ideograph-other"></p><p class="Default" style="page-break-after:avoid;text-autospace:ideograph-numeric ideograph-other"><u><span lang="EN-GB" style="font-size:11.0pt;color:windowtext">Tabulated list of adverse reactions</span></u></p><p class="Default"></p><p class="Default"><span lang="EN-GB" style="font-size:11.0pt;color:windowtext">The Table 2 presented below is according to the MedDRA system organ classification (SOC and Preferred Term Level). </span><span lang="EN-GB" style="font-size:11.0pt">Frequencies of adverse reactions are based on clinical studies with a total of 379 patients with severe haemophilia A, of which 276 were previously treated patients (PTPs) and 103 were previously untreated patients (PUPs)</span><span style="font-size: 11.0pt">.</span> S<span style="font-size:11.0pt">ee section 5.1 for additional details on the clinical studies.</span></p><p class="Default"><span lang="EN-GB" style="font-size:11.0pt;color:windowtext">Frequencies have been evaluated according to the following convention: very common (1/10); common (1/100 to &lt;1/10); uncommon (1/1,000 to &lt;1/100); rare (1/10,000 to &lt;1/1,000); very rare (&lt;1/10,000), not known (cannot be estimated from the available data).</span></p><p class="Default"></p><p class="Default"><span lang="EN-GB" style="font-size:11.0pt">Within each frequency grouping, adverse reactions are presented in order of decreasing seriousness.</span></p><p class="Default"></p><p class="MsoNormal" style="line-height:normal;page-break-after:avoid"><b><span lang="EN-GB">Table 2: Adverse reactions reported for ELOCTA in clinical trials<sup>1</sup></span></b></p><table border="0" cellpadding="0" cellspacing="0" class="MsoNormalTable" style="width:94.2%;border-collapse:collapse" width="94%"> <tr style="page-break-inside:avoid"> <td style="width:44.74%;border:solid black 1.0pt;   padding:.75pt 5.4pt 0in 5.4pt" valign="top" width="44%"> <p class="MsoNormal" style="line-height:normal;page-break-after:avoid"><b><span lang="EN-GB">MedDRA System Organ Class</span></b></p> </td> <td style="width:30.24%;border:solid black 1.0pt;   border-left:none;padding:.75pt 5.4pt 0in 5.4pt" valign="top" width="30%"> <p class="MsoNormal" style="line-height:normal;page-break-after:avoid"><b><span lang="EN-GB">Adverse reactions</span></b></p> </td> <td style="width:25.02%;border:solid black 1.0pt;   border-left:none;padding:0in 0in 0in 0in" valign="top" width="25%"> <p class="MsoNormal" style="margin-left:5.65pt;line-height:normal;page-break-after:   avoid"><b><span lang="EN-GB">Frequency category<sup>1</sup></span></b></p> </td> </tr> <tr style="page-break-inside:avoid"> <td style="width:44.74%;border:solid black 1.0pt;   border-top:none;padding:.75pt 5.4pt 0in 5.4pt" valign="top" width="44%"> <p class="MsoNormal" style="line-height:normal;page-break-after:avoid"><span lang="EN-GB">Blood and lymphatic system disorders</span></p> </td> <td style="width:30.24%;border-top:none;border-left:   none;border-bottom:solid black 1.0pt;border-right:solid black 1.0pt;   padding:.75pt 5.4pt 0in 5.4pt" valign="top" width="30%"> <p class="MsoNormal" style="line-height:normal;page-break-after:avoid"><span lang="EN-GB">FVIII inhibition</span></p> </td> <td style="width:25.02%;border-top:none;border-left:   none;border-bottom:solid black 1.0pt;border-right:solid black 1.0pt;   padding:0in 0in 0in 0in" valign="top" width="25%"> <p class="MsoNormal" style="margin-left:5.65pt;line-height:normal;page-break-after:   avoid"><span lang="EN-GB">Uncommon (PTPs)<sup>2</sup></span></p> <p class="MsoNormal" style="margin-left:5.65pt;line-height:normal;page-break-after:   avoid"><span lang="EN-GB">Very common (PUPs)<sup>2</sup></span></p> </td> </tr> <tr style="page-break-inside:avoid;height:11.45pt"> <td rowspan="3" style="width:44.74%;border-top:none;   border-left:solid black 1.0pt;border-bottom:none;border-right:solid black 1.0pt;   padding:.75pt 5.4pt 0in 5.4pt;height:11.45pt" valign="top" width="44%"> <p class="MsoNormal" style="line-height:normal;page-break-after:avoid"><span lang="EN-GB">Nervous system disorders</span></p> </td> <td style="width:30.24%;border-top:none;border-left:   none;border-bottom:solid windowtext 1.0pt;border-right:solid black 1.0pt;   padding:.75pt 5.4pt 0in 5.4pt;height:11.45pt" valign="top" width="30%"> <p class="MsoNormal" style="line-height:normal;page-break-after:avoid"><span lang="EN-GB">Headache</span></p> </td> <td style="width:25.02%;border-top:none;border-left:   none;border-bottom:solid windowtext 1.0pt;border-right:solid black 1.0pt;   padding:0in 0in 0in 0in;height:11.45pt" valign="top" width="25%"> <p class="MsoNormal" style="margin-left:5.65pt;line-height:normal;page-break-after:   avoid"><span lang="EN-GB">Uncommon</span></p> </td> </tr> <tr style="page-break-inside:avoid;height:10.0pt"> <td style="width:30.24%;border-top:none;border-left:   none;border-bottom:solid windowtext 1.0pt;border-right:solid black 1.0pt;   padding:.75pt 5.4pt 0in 5.4pt;height:10.0pt" valign="top" width="30%"> <p class="MsoNormal" style="line-height:normal;page-break-after:avoid"><span lang="EN-GB">Dizziness</span></p> </td> <td style="width:25.02%;border-top:none;border-left:   none;border-bottom:solid windowtext 1.0pt;border-right:solid black 1.0pt;   padding:0in 0in 0in 0in;height:10.0pt" valign="top" width="25%"> <p class="MsoNormal" style="margin-left:5.65pt;line-height:normal;page-break-after:   avoid"><span lang="EN-GB">Uncommon</span></p> </td> </tr> <tr style="page-break-inside:avoid;height:11.95pt"> <td style="width:30.24%;border-top:none;border-left:   none;border-bottom:solid windowtext 1.0pt;border-right:solid black 1.0pt;   padding:.75pt 5.4pt 0in 5.4pt;height:11.95pt" valign="top" width="30%"> <p class="MsoNormal" style="line-height:normal;page-break-after:avoid"><span lang="EN-GB">Dysgeusia</span></p> </td> <td style="width:25.02%;border-top:none;border-left:   none;border-bottom:solid windowtext 1.0pt;border-right:solid black 1.0pt;   padding:0in 0in 0in 0in;height:11.95pt" valign="top" width="25%"> <p class="MsoNormal" style="margin-left:5.65pt;line-height:normal;page-break-after:   avoid"><span lang="EN-GB">Uncommon</span></p> </td> </tr> <tr style="page-break-inside:avoid"> <td style="width:44.74%;border:solid black 1.0pt;   padding:.75pt 5.4pt 0in 5.4pt" valign="top" width="44%"> <p class="MsoNormal" style="line-height:normal;page-break-after:avoid"><span lang="EN-GB">Cardiac disorders</span></p> </td> <td style="width:30.24%;border-top:none;border-left:   none;border-bottom:solid black 1.0pt;border-right:solid black 1.0pt;   padding:.75pt 5.4pt 0in 5.4pt" valign="top" width="30%"> <p class="MsoNormal" style="line-height:normal;page-break-after:avoid"><span lang="EN-GB">Bradycardia</span></p> </td> <td style="width:25.02%;border-top:none;border-left:   none;border-bottom:solid black 1.0pt;border-right:solid black 1.0pt;   padding:0in 0in 0in 0in" valign="top" width="25%"> <p class="MsoNormal" style="margin-left:5.65pt;line-height:normal;page-break-after:   avoid"><span lang="EN-GB">Uncommon</span></p> </td> </tr> <tr style="page-break-inside:avoid;height:11.75pt"> <td rowspan="3" style="width:44.74%;border:solid black 1.0pt;   border-top:none;padding:.75pt 5.4pt 0in 5.4pt;height:11.75pt" valign="top" width="44%"> <p class="MsoNormal" style="line-height:normal;page-break-after:avoid"><span lang="EN-GB">Vascular disorders</span></p> </td> <td style="width:30.24%;border-top:none;border-left:   none;border-bottom:solid windowtext 1.0pt;border-right:solid black 1.0pt;   padding:.75pt 5.4pt 0in 5.4pt;height:11.75pt" valign="top" width="30%"> <p class="MsoNormal" style="line-height:normal;page-break-after:avoid"><span lang="EN-GB">Hypertension </span></p> </td> <td style="width:25.02%;border-top:none;border-left:   none;border-bottom:solid windowtext 1.0pt;border-right:solid black 1.0pt;   padding:0in 0in 0in 0in;height:11.75pt" valign="top" width="25%"> <p class="MsoNormal" style="margin-left:5.65pt;line-height:normal;page-break-after:   avoid"><span lang="EN-GB">Uncommon</span></p> </td> </tr> <tr style="page-break-inside:avoid;height:14.25pt"> <td style="width:30.24%;border-top:none;border-left:   none;border-bottom:solid windowtext 1.0pt;border-right:solid black 1.0pt;   padding:.75pt 5.4pt 0in 5.4pt;height:14.25pt" valign="top" width="30%"> <p class="MsoNormal" style="line-height:normal;page-break-after:avoid"><span lang="EN-GB">Hot flush</span></p> </td> <td style="width:25.02%;border-top:none;border-left:   none;border-bottom:solid windowtext 1.0pt;border-right:solid black 1.0pt;   padding:0in 0in 0in 0in;height:14.25pt" valign="top" width="25%"> <p class="MsoNormal" style="margin-left:5.65pt;line-height:normal;page-break-after:   avoid"><span lang="EN-GB">Uncommon</span></p> </td> </tr> <tr style="page-break-inside:avoid;height:13.55pt"> <td style="width:30.24%;border-top:none;border-left:   none;border-bottom:solid black 1.0pt;border-right:solid black 1.0pt;   padding:.75pt 5.4pt 0in 5.4pt;height:13.55pt" valign="top" width="30%"> <p class="MsoNormal" style="line-height:normal;page-break-after:avoid"><span lang="EN-GB">Angiopathy</span><sup><span lang="EN-GB" style="font-size:10.0pt">4 </span></sup></p> </td> <td style="width:25.02%;border-top:none;border-left:   none;border-bottom:solid black 1.0pt;border-right:solid black 1.0pt;   padding:0in 0in 0in 0in;height:13.55pt" valign="top" width="25%"> <p class="MsoNormal" style="margin-left:5.65pt;line-height:normal;page-break-after:   avoid"><span lang="EN-GB">Uncommon</span></p> </td> </tr> <tr style="page-break-inside:avoid"> <td style="width:44.74%;border:solid black 1.0pt;   border-top:none;padding:.75pt 5.4pt 0in 5.4pt" valign="top" width="44%"> <p class="MsoNormal" style="line-height:normal;page-break-after:avoid"><span lang="EN-GB">Respiratory, thoracic, and mediastinal disorders</span></p> </td> <td style="width:30.24%;border-top:none;border-left:   none;border-bottom:solid black 1.0pt;border-right:solid black 1.0pt;   padding:.75pt 5.4pt 0in 5.4pt" valign="top" width="30%"> <p class="MsoNormal" style="line-height:normal;page-break-after:avoid"><span lang="EN-GB">Cough</span></p> </td> <td style="width:25.02%;border-top:none;border-left:   none;border-bottom:solid black 1.0pt;border-right:solid black 1.0pt;   padding:0in 0in 0in 0in" valign="top" width="25%"> <p class="MsoNormal" style="margin-left:5.65pt;line-height:normal;page-break-after:   avoid"><span lang="EN-GB">Uncommon</span></p> </td> </tr> <tr style="page-break-inside:avoid"> <td style="width:44.74%;border:solid black 1.0pt;   border-top:none;padding:.75pt 5.4pt 0in 5.4pt" valign="top" width="44%"> <p class="MsoNormal" style="line-height:normal;page-break-after:avoid"><span lang="EN-GB">Gastrointestinal disorders</span></p> </td> <td style="width:30.24%;border-top:none;border-left:   none;border-bottom:solid black 1.0pt;border-right:solid black 1.0pt;   padding:.75pt 5.4pt 0in 5.4pt" valign="top" width="30%"> <p class="MsoNormal" style="line-height:normal;page-break-after:avoid"><span lang="EN-GB">Abdominal pain, lower</span></p> </td> <td style="width:25.02%;border-top:none;border-left:   none;border-bottom:solid black 1.0pt;border-right:solid black 1.0pt;   padding:0in 0in 0in 0in" valign="top" width="25%"> <p class="MsoNormal" style="margin-left:5.65pt;line-height:normal;page-break-after:   avoid"><span lang="EN-GB">Uncommon</span></p> </td> </tr> <tr style="page-break-inside:avoid;height:11.4pt"> <td rowspan="2" style="width:44.74%;border:solid black 1.0pt;   border-top:none;padding:.75pt 5.4pt 0in 5.4pt;height:11.4pt" valign="top" width="44%"> <p class="MsoNormal" style="line-height:normal;page-break-after:avoid"><span lang="EN-GB">Skin and subcutaneous tissue disorders</span></p> </td> <td style="width:30.24%;border-top:none;border-left:   none;border-bottom:solid windowtext 1.0pt;border-right:solid black 1.0pt;   padding:.75pt 5.4pt 0in 5.4pt;height:11.4pt" valign="top" width="30%"> <p class="MsoNormal" style="line-height:normal;page-break-after:avoid"><span lang="EN-GB">Papular rash</span></p> </td> <td style="width:25.02%;border-top:none;border-left:   none;border-bottom:solid windowtext 1.0pt;border-right:solid black 1.0pt;   padding:0in 0in 0in 0in;height:11.4pt" valign="top" width="25%"> <p class="MsoNormal" style="margin-left:5.65pt;line-height:normal;page-break-after:   avoid"><span lang="EN-GB">Common (PUPs)<sup>3</sup></span></p> </td> </tr> <tr style="page-break-inside:avoid;height:13.6pt"> <td style="width:30.24%;border-top:none;border-left:   none;border-bottom:solid black 1.0pt;border-right:solid black 1.0pt;   padding:.75pt 5.4pt 0in 5.4pt;height:13.6pt" valign="top" width="30%"> <p class="MsoNormal" style="line-height:normal;page-break-after:avoid"><span lang="EN-GB">Rash</span></p> </td> <td style="width:25.02%;border-top:none;border-left:   none;border-bottom:solid black 1.0pt;border-right:solid black 1.0pt;   padding:0in 0in 0in 0in;height:13.6pt" valign="top" width="25%"> <p class="MsoNormal" style="margin-left:5.65pt;line-height:normal;page-break-after:   avoid"><span lang="EN-GB">Uncommon</span></p> </td> </tr> <tr style="page-break-inside:avoid;height:10.55pt"> <td rowspan="4" style="width:44.74%;border-top:none;   border-left:solid black 1.0pt;border-bottom:none;border-right:solid black 1.0pt;   padding:.75pt 5.4pt 0in 5.4pt;height:10.55pt" valign="top" width="44%"> <p class="MsoNormal" style="line-height:normal;page-break-after:avoid"><span lang="EN-GB">Musculoskeletal and connective tissue disorders</span></p> </td> <td style="width:30.24%;border-top:none;border-left:   none;border-bottom:solid windowtext 1.0pt;border-right:solid black 1.0pt;   padding:.75pt 5.4pt 0in 5.4pt;height:10.55pt" valign="top" width="30%"> <p class="MsoNormal" style="line-height:normal;page-break-after:avoid"><span lang="EN-GB">Arthralgia</span></p> </td> <td style="width:25.02%;border-top:none;border-left:   none;border-bottom:solid windowtext 1.0pt;border-right:solid black 1.0pt;   padding:0in 0in 0in 0in;height:10.55pt" valign="top" width="25%"> <p class="MsoNormal" style="margin-left:5.65pt;line-height:normal;page-break-after:   avoid"><span lang="EN-GB">Uncommon</span></p> </td> </tr> <tr style="page-break-inside:avoid;height:9.7pt"> <td style="width:30.24%;border-top:none;border-left:   none;border-bottom:solid windowtext 1.0pt;border-right:solid black 1.0pt;   padding:.75pt 5.4pt 0in 5.4pt;height:9.7pt" valign="top" width="30%"> <p class="MsoNormal" style="line-height:normal;page-break-after:avoid"><span lang="EN-GB">Myalgia</span></p> </td> <td style="width:25.02%;border-top:none;border-left:   none;border-bottom:solid windowtext 1.0pt;border-right:solid black 1.0pt;   padding:0in 0in 0in 0in;height:9.7pt" valign="top" width="25%"> <p class="MsoNormal" style="margin-left:5.65pt;line-height:normal;page-break-after:   avoid"><span lang="EN-GB">Uncommon</span></p> </td> </tr> <tr style="page-break-inside:avoid;height:9.45pt"> <td style="width:30.24%;border-top:none;border-left:   none;border-bottom:solid windowtext 1.0pt;border-right:solid black 1.0pt;   padding:.75pt 5.4pt 0in 5.4pt;height:9.45pt" valign="top" width="30%"> <p class="MsoNormal" style="line-height:normal;page-break-after:avoid"><span lang="EN-GB">Back pain</span></p> </td> <td style="width:25.02%;border-top:none;border-left:   none;border-bottom:solid windowtext 1.0pt;border-right:solid black 1.0pt;   padding:0in 0in 0in 0in;height:9.45pt" valign="top" width="25%"> <p class="MsoNormal" style="margin-left:5.65pt;line-height:normal;page-break-after:   avoid"><span lang="EN-GB">Uncommon</span></p> </td> </tr> <tr style="page-break-inside:avoid;height:12.8pt"> <td style="width:30.24%;border:none;border-right:solid black 1.0pt;   padding:.75pt 5.4pt 0in 5.4pt;height:12.8pt" valign="top" width="30%"> <p class="MsoNormal" style="line-height:normal;page-break-after:avoid"><span lang="EN-GB">Joint swelling</span></p> </td> <td style="width:25.02%;border-top:none;border-left:   none;border-bottom:solid windowtext 1.0pt;border-right:solid black 1.0pt;   padding:0in 0in 0in 0in;height:12.8pt" valign="top" width="25%"> <p class="MsoNormal" style="margin-left:5.65pt;line-height:normal;page-break-after:   avoid"><span lang="EN-GB">Uncommon</span></p> </td> </tr> <tr style="page-break-inside:avoid;height:24.55pt"> <td rowspan="5" style="width:44.74%;border:solid black 1.0pt;   border-bottom:none;padding:.75pt 5.4pt 0in 5.4pt;height:24.55pt" valign="top" width="44%"> <p class="MsoNormal" style="line-height:normal;page-break-after:avoid"><span lang="EN-GB">General disorders and administration site conditions</span></p> </td> <td style="width:30.24%;border-top:solid black 1.0pt;   border-left:none;border-bottom:solid windowtext 1.0pt;border-right:solid black 1.0pt;   padding:.75pt 5.4pt 0in 5.4pt;height:24.55pt" valign="top" width="30%"> <p class="MsoNormal" style="line-height:normal;page-break-after:avoid"><span lang="EN-GB">Device related thrombosis</span></p> </td> <td style="width:25.02%;border-top:none;border-left:   none;border-bottom:solid windowtext 1.0pt;border-right:solid black 1.0pt;   padding:0in 0in 0in 0in;height:24.55pt" valign="top" width="25%"> <p class="MsoNormal" style="margin-left:5.65pt;line-height:normal;page-break-after:   avoid"><span lang="EN-GB">Common (PUPs)<sup>3</sup></span></p> </td> </tr> <tr style="page-break-inside:avoid;height:14.15pt"> <td style="width:30.24%;border-top:none;border-left:   none;border-bottom:solid windowtext 1.0pt;border-right:solid black 1.0pt;   padding:.75pt 5.4pt 0in 5.4pt;height:14.15pt" valign="top" width="30%"> <p class="MsoNormal" style="line-height:normal;page-break-after:avoid"><span lang="EN-GB">Malaise</span></p> </td> <td style="width:25.02%;border-top:none;border-left:   none;border-bottom:solid windowtext 1.0pt;border-right:solid black 1.0pt;   padding:0in 0in 0in 0in;height:14.15pt" valign="top" width="25%"> <p class="MsoNormal" style="margin-left:5.65pt;line-height:normal;page-break-after:   avoid"><span lang="EN-GB">Uncommon</span></p> </td> </tr> <tr style="page-break-inside:avoid;height:10.0pt"> <td style="width:30.24%;border-top:none;border-left:   none;border-bottom:solid windowtext 1.0pt;border-right:solid black 1.0pt;   padding:.75pt 5.4pt 0in 5.4pt;height:10.0pt" valign="top" width="30%"> <p class="MsoNormal" style="line-height:normal;page-break-after:avoid"><span lang="EN-GB">Chest pain</span></p> </td> <td style="width:25.02%;border-top:none;border-left:   none;border-bottom:solid windowtext 1.0pt;border-right:solid black 1.0pt;   padding:0in 0in 0in 0in;height:10.0pt" valign="top" width="25%"> <p class="MsoNormal" style="margin-left:5.65pt;line-height:normal;page-break-after:   avoid"><span lang="EN-GB">Uncommon</span></p> </td> </tr> <tr style="page-break-inside:avoid;height:11.1pt"> <td style="width:30.24%;border-top:none;border-left:   none;border-bottom:solid windowtext 1.0pt;border-right:solid black 1.0pt;   padding:.75pt 5.4pt 0in 5.4pt;height:11.1pt" valign="top" width="30%"> <p class="MsoNormal" style="line-height:normal;page-break-after:avoid"><span lang="EN-GB">Feeling cold</span></p> </td> <td style="width:25.02%;border-top:none;border-left:   none;border-bottom:solid windowtext 1.0pt;border-right:solid black 1.0pt;   padding:0in 0in 0in 0in;height:11.1pt" valign="top" width="25%"> <p class="MsoNormal" style="margin-left:5.65pt;line-height:normal;page-break-after:   avoid"><span lang="EN-GB">Uncommon</span></p> </td> </tr> <tr style="page-break-inside:avoid;height:11.75pt"> <td style="width:30.24%;border:none;border-right:solid black 1.0pt;   padding:.75pt 5.4pt 0in 5.4pt;height:11.75pt" valign="top" width="30%"> <p class="MsoNormal" style="line-height:normal;page-break-after:avoid"><span lang="EN-GB">Feeling hot</span></p> </td> <td style="width:25.02%;border:none;border-right:solid black 1.0pt;   padding:0in 0in 0in 0in;height:11.75pt" valign="top" width="25%"> <p class="MsoNormal" style="margin-left:5.65pt;line-height:normal;page-break-after:   avoid"><span lang="EN-GB">Uncommon</span></p> </td> </tr> <tr style="page-break-inside:avoid"> <td style="width:44.74%;border:solid black 1.0pt;   padding:.75pt 5.4pt 0in 5.4pt" valign="top" width="44%"> <p class="MsoNormal" style="line-height:normal"><span lang="EN-GB">Injury,   poisoning, and procedural complications</span></p> </td> <td style="width:30.24%;border:solid black 1.0pt;   border-left:none;padding:.75pt 5.4pt 0in 5.4pt" valign="top" width="30%"> <p class="MsoNormal" style="line-height:normal"><span lang="EN-GB">Procedural   hypotension</span></p> </td> <td style="width:25.02%;border:solid black 1.0pt;   border-left:none;padding:0in 0in 0in 0in" valign="top" width="25%"> <p class="MsoNormal" style="margin-left:5.65pt;line-height:normal"><span lang="EN-GB">Uncommon</span></p> </td> </tr> </table><p class="MsoNormal" style="line-height:normal;text-autospace:none"><span lang="EN-GB" style="font-size:10.0pt">PTPs = previously treated patients, PUPs = previously untreated patients.</span></p><p class="MsoNormal" style="line-height:normal;text-autospace:none"><sup><span lang="EN-GB" style="font-size:10.0pt">1</span></sup><span lang="EN-GB" style="font-size:10.0pt"> ADRs and frequency are based on occurrence in PTPs only, unless otherwise noted.</span></p><p class="MsoNormal" style="line-height:normal;text-autospace:none"><sup><span lang="EN-GB" style="font-size:10.0pt">2</span></sup><span lang="EN-GB" style="font-size:10.0pt"> Frequency is based on studies with all FVIII products which included patients with severe haemophilia A.</span></p><p class="MsoNormal" style="line-height:normal;text-autospace:none"><sup><span lang="EN-GB" style="font-size:10.0pt">3</span></sup><span lang="EN-GB" style="font-size:10.0pt"> ADRs and frequency s are based on occurrence in PUPs only.</span></p><p class="MsoNormal" style="line-height:normal"><sup><span lang="EN-GB" style="font-size:10.0pt">4</span></sup><span lang="EN-GB" style="font-size:10.0pt"> Investigator term<i>: vascular pain after injection of ELOCTA.</i></span></p><p class="MsoNormal" style="line-height:normal;text-autospace:none"></p><p class="Default" style="page-break-after:avoid"><u><span lang="EN-GB" style="font-size:11.0pt;color:windowtext">Paediatric population</span></u></p><p class="MsoNormal" style="line-height:normal;text-autospace:none"><span lang="EN-GB">N</span><span lang="EN-GB">o age-specific differences in adverse reactions were observed between paediatric and adult subjects. </span><span lang="EN-GB">Frequency, type and severity of adverse reactions in children are expected to be the same as in adults.</span></p><p class="MsoNormal" style="line-height:normal;text-autospace:none"></p><p class="MsoNormal" style="line-height:normal;page-break-after:avoid;text-autospace: none"><u><span lang="EN-GB">Reporting of suspected adverse reactions</span></u></p><p class="MsoNormal" style="line-height:normal;text-autospace:none"><span lang="EN-GB">Reporting suspected adverse reactions after authorisation of the medicinal product is important. It allows continued monitoring of the benefit/risk balance of the medicinal product. Healthcare professionals are asked to report any suspected adverse reactions via <span style="color:black; background:#D9D9D9">the national reporting system listed in </span></span><span lang="EN-GB"><a href="http://www.ema.europa.eu/docs/en_GB/document_library/Template_or_form/2013/03/WC500139752.doc"><span style="background:#D9D9D9">Appendix V</span></a></span><span lang="EN-GB">.</span></p><p class="MsoNormal" style="line-height:normal"></p>
			</div>
		</text>
		
    	    
		
</section>
			    
    	    

			    
		               
<section>
			<title value="4.9     Overdose"/>
				<code>
					<coding>
						<system value="http://spor.ema.europa.eu/v1/example-sections"/>
						<code value="${document[n].section[n].subsection[n].typeCode}"/>
						<display value="${document[n].section[n].subsection[n].typeDisplay}"/>
					</coding>
				</code>
		<text>
			<status value="additional"/>
			<div xmlns="http://www.w3.org/1999/xhtml">
		    <p class="MsoNormal" style="line-height:normal;page-break-after:avoid;text-autospace: none"></p><p class="MsoNormal" style="line-height:normal"><span lang="EN-GB">No symptoms of overdose have been reported.</span></p><p class="MsoNormal" style="line-height:normal"></p><p class="MsoNormal" style="margin-left:28.35pt;text-indent:-28.35pt;line-height: normal"></p>
			</div>
		</text>
		
    	    
		
</section>
			    
    	    
		
</section>
			    
    	    
				
			    
						
		               
<section>
			<title value="5.       PHARMACOLOGICAL PROPERTIES"/>
				<code>
					<coding>
						<system value="http://spor.ema.europa.eu/v1/example-sections"/>
						<code value="${document[n].section[n].subsection[n].typeCode}"/>
						<display value="${document[n].section[n].subsection[n].typeDisplay}"/>
					</coding>
				</code>
		<text>
			<status value="additional"/>
			<div xmlns="http://www.w3.org/1999/xhtml">
		    <p class="MsoNormal" style="line-height:normal;page-break-after:avoid;text-autospace: none"></p>
			</div>
		</text>
		
    	    

			    
		               
<section>
			<title value="5.1     Pharmacodynamic properties"/>
				<code>
					<coding>
						<system value="http://spor.ema.europa.eu/v1/example-sections"/>
						<code value="${document[n].section[n].subsection[n].typeCode}"/>
						<display value="${document[n].section[n].subsection[n].typeDisplay}"/>
					</coding>
				</code>
		<text>
			<status value="additional"/>
			<div xmlns="http://www.w3.org/1999/xhtml">
		    <p class="MsoNormal" style="line-height:normal;page-break-after:avoid;text-autospace: none"></p><p class="MsoNormal" style="margin-left:28.35pt;text-indent:-28.35pt;line-height: normal"><span lang="EN-GB">Pharmacotherapeutic group: antihaemorrhagics, blood coagulation factor VIII, ATC code: B02BD02</span></p><p class="MsoNormal" style="margin-left:28.35pt;text-indent:-28.35pt;line-height: normal"></p><p class="MsoNormal" style="line-height:normal;page-break-after:avoid;text-autospace: none"><u><span lang="EN-GB">Mechanism of action</span></u></p><p class="MsoNormal" style="line-height:normal;text-autospace:none"><span lang="EN-GB">The factor VIII/von Willebrand factor complex consists of two molecules (factor VIII and von Willebrand factor) with different physiological functions. When infused into a haemophiliac patient, factor VIII binds to von Willebrand factor in the patients circulation. Activated factor VIII acts as a cofactor for activated factor IX, accelerating the conversion of factor X to activated factor X. Activated factor X converts prothrombin into thrombin. Thrombin then converts fibrinogen into fibrin and a clot can be formed.</span></p><p class="MsoNormal" style="line-height:normal;text-autospace:none"></p><p class="MsoNormal" style="line-height:normal;text-autospace:none"><span lang="EN-GB">Haemophilia A is an X-linked hereditary disorder of blood coagulation due to decreased levels of functional factor VIII:C and results in bleeding into joints, muscles or internal organs, either spontaneously or as a result of accidental or surgical trauma. By replacement therapy the plasma levels of factor VIII are increased, thereby enabling a temporary correction of the factor deficiency and correction of the bleeding tendencies.</span></p><p class="MsoNormal" style="line-height:normal;text-autospace:none"></p><p class="MsoNormal" style="line-height:normal;text-autospace:none"><span lang="EN-GB">Of note, annualized bleeding rate (ABR) is not comparable between different factor concentrates and between different clinical studies.</span></p><p class="MsoNormal" style="line-height:normal;text-autospace:none"></p><p class="MsoNormal" style="line-height:normal;text-autospace:none"><span lang="EN-GB">ELOCTA (efmoroctocog alfa) is a fully recombinant fusion protein with extended half-life. ELOCTA is comprised of recombinant B-domain deleted human coagulation factor VIII covalently linked to the Fc domain of human immunoglobulin G1. The Fc region of human immunoglobulin G1 binds to the neonatal Fc receptor. This receptor is expressed throughout life and is part of a naturally occurring pathway that protects immunoglobulins from lysosomal degradation by cycling these proteins back into circulation, resulting in their long plasma half-life. Efmoroctocog alfa binds to neonatal Fc receptor thereby utilising this same naturally occurring pathway to delay lysosomal degradation and allow for longer plasma half-life than endogenous factor VIII.</span></p><p class="MsoNormal" style="line-height:normal;text-autospace:none"></p><p class="MsoNormal" style="line-height:normal;page-break-after:avoid;text-autospace: none"><u><span lang="EN-GB">Clinical efficacy and safety</span></u></p><p class="MsoNormal" style="line-height:normal;text-autospace:none"><span lang="EN-GB">The safety, efficacy, and pharmacokinetics of ELOCTA in previously treated patients (PTPs) were evaluated in 2 multinational, open-label, pivotal phase 3 studies, Study I and Study II (see Paediatric population), and an extension study (Study III) with a duration of up to four years.</span><span lang="EN-GB">In total 276 PTPs were followed for a total of 80,848 exposure days with a median of 294 (range 1-735) exposure days per patient. In addition, a phase 3 study (Study IV) was performed to evaluate the safety and efficacy of ELOCTA in previously untreated patients (PUPs) (see Paediatric population). </span></p><p class="MsoNormal" style="line-height:normal;text-autospace:none"></p><p class="MsoNormal" style="line-height:normal;text-autospace:none"><span lang="EN-GB">Study I enrolled 165 previously treated male patients (12 to 65 years of age) with severe haemophilia A. Subjects on prophylaxis regimens prior to entering the study were assigned to the individualised prophylaxis arm. Subjects on on-demand therapy prior to entry either entered the individualised prophylaxis arm or were randomised to the weekly prophylaxis or on-</span><span lang="EN-GB">demand arms</span><span lang="EN-GB">.</span></p><p class="MsoNormal" style="line-height:normal;text-autospace:none"></p><p class="MsoNormal" style="line-height:normal;page-break-after:avoid;text-autospace: none"><span lang="EN-GB">Prophylaxis regimens:</span></p><p class="MsoNormal" style="line-height:normal;text-autospace:none"><span lang="EN-GB">Individualised prophylaxis: 25 to 65 IU/kg every 3 to 5 days.</span></p><p class="MsoNormal" style="line-height:normal;text-autospace:none"><span lang="EN-GB">Weekly prophylaxis: 65 IU/kg</span></p><p class="MsoNormal" style="line-height:normal"></p><p class="MsoNormal" style="line-height:normal"><span lang="EN-GB">Out of 153 subjects who completed Study I, 150 were enrolled onto Study III (extension study). Median total time on Study I+III was 4.2 years and median number of exposure days was 309.</span></p><p class="MsoNormal" style="line-height:normal"></p><p class="MsoNormal" style="line-height:normal"><i><u><span lang="EN-GB">Individualised prophylaxis:</span></u></i><span lang="EN-GB">M</span><span lang="EN-GB">edian annual factor consumption was </span><span lang="EN-GB">4212</span><span lang="EN-GB"> IU/kg (min. </span><span lang="EN-GB">2877, max. 7943</span><span lang="EN-GB">) in Study I and </span><span lang="EN-GB">4223</span><span lang="EN-GB"> IU/kg (min. </span><span lang="EN-GB">2668, max 8317</span><span lang="EN-GB">) in Study III. Respective</span><span lang="EN-GB"> median </span><span lang="EN-GB">Annualized Bleed Rate (ABR) was </span><span lang="EN-GB">1.60 </span>(min. 0, max. 18.2) and 0.74 (min. 0, max. 15.6).</p><p class="MsoNormal" style="line-height:normal"></p><p class="MsoNormal" style="line-height:normal;text-autospace:none"><i><u><span lang="EN-GB">Weekly prophylaxis:</span></u></i><span lang="EN-GB">M</span><span lang="EN-GB">edian annual factor consumption was </span><span lang="EN-GB">3805</span><span lang="EN-GB"> IU/kg (min. </span><span lang="EN-GB">3353, max. 6196</span><span lang="EN-GB">) in Study I and </span><span lang="EN-GB">3510</span><span lang="EN-GB"> IU/kg (min. </span><span lang="EN-GB">2758, max. 3984</span><span lang="EN-GB">) in Study III. Respective median ABR was</span><span lang="EN-GB"> 3.59 (min. 0, max. 58.0) </span><span lang="EN-GB">and </span><span lang="EN-GB">2.24</span><span lang="EN-GB"> (min. 0, max. 17.2).</span></p><p class="MsoNormal" style="line-height:normal;text-autospace:none"></p><p class="MsoNormal" style="line-height:normal;text-autospace:none"><i><u><span lang="EN-GB">On-demand treatment:</span></u></i><span lang="EN-GB"> Median annual factor consumption was </span><span lang="EN-GB">1039</span><span lang="EN-GB"> IU/kg (min. </span><span lang="EN-GB">280, max. 3571</span><span lang="EN-GB">) for 23 patients randomised to the on-demand treatment arm in Study I and </span><span lang="EN-GB">671</span><span lang="EN-GB"> IU/kg (min. </span><span lang="EN-GB">286, max. 913</span><span lang="EN-GB">) for 6 patients remaining on on-demand treatment for at least one year in Study III.</span></p><p class="MsoNormal" style="line-height:normal;text-autospace:none"></p><p class="MsoNormal" style="line-height:normal;text-autospace:none"><span lang="EN-GB">Subjects that switched from on-</span><span lang="EN-GB">demand treatment </span><span lang="EN-GB">to weekly </span><span lang="EN-GB">prophylaxis </span><span lang="EN-GB">during Study III had a median ABR of 1.67</span><span lang="EN-GB">.</span></p><p class="MsoNormal" style="line-height:normal;text-autospace:none"></p><p class="MsoNormal" style="line-height:normal;text-autospace:none"><i><u><span lang="EN-GB">Treatment of bleeding</span></u><span lang="EN-GB">:</span></i><span lang="EN-GB"> 2490 bleeding events were treated during Study I and III with a median dose of 43.8 IU/kg (min. 13.0, max. 172.8) to control each bleed. 79.2 % of first injections were rated as excellent or good by the patients.</span></p><p class="MsoListParagraphCxSpFirst" style="margin-left:0in"></p><p class="MsoListParagraphCxSpLast" style="margin-left:0in"><i><u><span lang="EN-GB" style="font-size:11.0pt">Perioperative management (surgical prophylaxis)</span></u></i><i><span lang="EN-GB" style="font-size:11.0pt">:</span></i><span lang="EN-GB" style="font-size:11.0pt"> A total of 48 major surgical procedures were performed and assessed in 34 subjects in Study I and Study III. </span><span lang="EN-GB" style="font-size:11.0pt">The haemostatic response was rated by the physicians as excellent in 41 and as good in 3 of 44 major surgeries. Median dose to maintain haemostasis during surgery was 60.6 IU/kg (min. 38, max. 158). </span></p><p class="MsoNormal" style="line-height:normal;page-break-after:avoid;text-autospace: none"><u><span lang="EN-GB"></span></u></p><p class="MsoNormal" style="line-height:normal;page-break-after:avoid;text-autospace: none"><u><span lang="EN-GB">Paediatric population</span></u></p><p class="MsoNormal" style="line-height:normal"><span lang="EN-GB">Study II enrolled a total of 71 previously treated male paediatric patients &lt;12 years of age with severe haemophilia A. Of the 71 enrolled subjects, 69 received at least 1 dose of ELOCTA and were evaluable for efficacy (35 were &lt;6 years of age and 34 were 6 to &lt;12 years of age). </span><span lang="EN-GB">The starting prophylactic regimen consisted of 25 IU/kg on </span><span lang="EN-GB">the first day followed by 50 IU/kg on the fourth day. Dosing of up to 80 IU/kg and a dosing interval as short as 2 days was allowed and used in a limited number of patients. Out of 67 subjects having completed Study II, 61 enrolled onto Study III (extension study). Median total time on study II+III was 3.4 years and median number of exposure days was 332.</span></p><p class="MsoNormal" style="line-height:normal"><i><u><span lang="EN-GB"></span></u></i></p><p class="MsoNormal" style="line-height:normal"><i><u><span lang="EN-GB">Prophylaxis, age &lt;6 years:</span></u></i><span lang="EN-GB"> Median dose interval was 3.50 days in Study II and Study III. </span><span lang="EN-GB">M</span><span lang="EN-GB">edian annual factor consumption was 5146 IU/kg (min. 3695, max 8474) in Study II and </span><span lang="EN-GB">5418</span><span lang="EN-GB"> IU/kg (min. </span><span lang="EN-GB">3435, max. 9564</span><span lang="EN-GB">) in Study III . Respective median Annualized. Bleed Rate (ABR) was 0.00 (</span>min. 0, max. 10.5), and 1.18 (min. 0, max. 9.2<span lang="EN-GB">) </span></p><p class="MsoNormal" style="line-height:normal"></p><p class="MsoNormal" style="line-height:normal"><i><u><span lang="EN-GB">Prophylaxis, age 6 up to 12 years:</span></u></i><span lang="EN-GB"> Median dose interval was 3.49 days in Study II and 3.50 days in Study III. </span><span lang="EN-GB">M</span><span lang="EN-GB">edian annual factor consumption was 4700 IU/kg (min. 3819, max. 8230</span><span lang="EN-GB">IU/kg) in Study</span><span lang="EN-GB">II and 4990</span><span lang="EN-GB">IU/kg (min. </span><span lang="EN-GB">3856, max. 9527</span><span lang="EN-GB">) in Study</span><span lang="EN-GB">III. Respective median ABR was 2.01 (</span>min. 0, max. 27.2) and 1.59 (min. 0, max. 8.0<span lang="EN-GB">).</span></p><p class="MsoNormal" style="line-height:normal"></p><p class="MsoNormal" style="line-height:normal"><i><u><span lang="EN-GB">12 adolescent subjects age 12 up to 18 years</span></u></i><span lang="EN-GB"> were included in the adult study population on prophylactic treatment. </span><span lang="EN-GB">M</span><span lang="EN-GB">edian annual factor consumption was 5572 IU/kg (min. 3849, max. 7035) in Study I and 4456 IU/kg (min. 3563, max. 8011) in Study III. Respective median ABR was 1.92 (</span>min. 0, max. 7.1) and 1.25 (min. 0, max. 9.5<span lang="EN-GB">).</span></p><p class="MsoNormal" style="line-height:normal"><i><u><span lang="EN-GB" style="background:yellow"></span></u></i></p><p class="MsoNormal" style="line-height:normal;text-autospace:none"><i><u><span lang="EN-GB">Treatment of bleeding</span></u><span lang="EN-GB">:</span></i><span lang="EN-GB"> During Studies II and III, 447 bleeding events were treated with a median dose of 63 IU/kg (min. 28, max. 186) to control each bleed. 90.2 % of first injections were rated as excellent or good by the patients and their caregivers.</span></p><p class="MsoNormal" style="line-height:normal"> </p><p class="MsoNormal" style="line-height:normal">Study IV evaluated 103 male previously untreated patients (PUPs) &lt;6 years of age with severe haemophilia A. Patients were followed for a total of 11,255 exposure days with a median of 100 <span lang="EN-GB">(range 0-649)</span>exposure days per patient.  Most subjects started on episodic treatment (N=81) with subsequent transition to prophylaxis (N=69). At any time during the study, 89 PUPs received prophylaxis. The recommended initial dose on prophylaxis was 2580 IU/kg at 35-day intervals. For subjects on prophylaxis, the median average weekly dose was 101.4 IU/kg (range: 28.5-776.3 IU/kg) and the median dosing interval was 3.87 days (range 1.1 to 7 days). Median annual factor consumption was 3971.4 IU/kg. Annualized Bleeding Rate was 1.49 (min 0.0, max 18.7).</p><p class="MsoNormal" style="line-height:normal;text-autospace:none"></p>
			</div>
		</text>
		
    	    
		
</section>
			    
    	    

			    
		               
<section>
			<title value="5.2     Pharmacokinetic properties"/>
				<code>
					<coding>
						<system value="http://spor.ema.europa.eu/v1/example-sections"/>
						<code value="${document[n].section[n].subsection[n].typeCode}"/>
						<display value="${document[n].section[n].subsection[n].typeDisplay}"/>
					</coding>
				</code>
		<text>
			<status value="additional"/>
			<div xmlns="http://www.w3.org/1999/xhtml">
		    <p class="MsoNormal" style="line-height:normal;page-break-after:avoid;text-autospace: none"></p><p class="MsoNormal" style="line-height:normal"><span lang="EN-GB">All pharmacokinetic studies with ELOCTA were conducted in previously treated patients with severe haemophilia A. Data presented in this section were obtained by chromogenic and one-stage clotting assays. The pharmacokinetic parameters from the chromogenic assay data were similar to those derived for the onestage assay.</span></p><p class="MsoNormal" style="line-height:normal"></p><p class="MsoNormal" style="line-height:normal"><span lang="EN-GB">Pharmacokinetic properties were evaluated in 28 subjects (15 years) receiving ELOCTA (rFVIIIFc). Following a washout period of at least 96 hours (4 days), the subjects received a single dose of 50 IU/kg of ELOCTA. Pharmacokinetic samples were collected pre-dose and then subsequently at 7 time points up to 120 hours (5 days) post-dose. Pharmacokinetic parameters after 50 IU/kg dose of ELOCTA are presented in Tables 3 and 4.</span></p><p class="MsoNormal" style="line-height:normal"></p><p class="MsoNormal" style="line-height:normal;page-break-after:avoid;background: white"><b><span lang="EN-GB" style="color:black">Table </span></b><b><span lang="EN-GB" style="color:black">3</span><span lang="EN-GB" style="color:black">: Pharmacokinetic parameters of ELOCTA </span></b><b><span lang="EN-GB" style="color:black">using the one-stage clotting assay</span></b></p><table border="0" cellpadding="0" cellspacing="0" class="MsoNormalTable" style="width:5.5in;margin-left:4.55pt;border-collapse:collapse" width="528"> <tr> <td rowspan="2" style="width:207.0pt;border:solid black 1.0pt;   padding:.75pt 4.55pt 0in 4.55pt" width="276"> <p align="center" class="MsoNormal" style="text-align:center;line-height:normal;   page-break-after:avoid"><b><span lang="EN-GB">Pharmacokinetic parameters<sup>1</sup></span></b></p> </td> <td style="width:189.0pt;border:solid black 1.0pt;border-left:none;   padding:.75pt 4.55pt 0in 4.55pt" width="252"> <p align="center" class="MsoNormal" style="text-align:center;line-height:normal;   page-break-after:avoid"><b><span lang="EN-GB">ELOCTA </span></b></p> <p align="center" class="MsoNormal" style="text-align:center;line-height:normal;   page-break-after:avoid"><b><span lang="EN-GB">(95% CI)</span></b></p> </td> </tr> <tr> <td style="width:189.0pt;border-top:none;border-left:none;   border-bottom:solid black 1.0pt;border-right:solid black 1.0pt;padding:.75pt 4.55pt 0in 4.55pt" width="252"> <p align="center" class="MsoNormal" style="text-align:center;line-height:normal;   page-break-after:avoid"><span lang="EN-GB">N=28</span></p> </td> </tr> <tr> <td style="width:207.0pt;border:solid black 1.0pt;border-top:none;   padding:.75pt 4.55pt 0in 4.55pt" width="276"> <p align="center" class="MsoNormal" style="text-align:center;line-height:normal;   page-break-after:avoid"><span lang="EN-GB">Incremental Recovery (IU/dL per   IU/kg)</span></p> </td> <td style="width:189.0pt;border-top:none;border-left:none;   border-bottom:solid black 1.0pt;border-right:solid black 1.0pt;padding:.75pt 4.55pt 0in 4.55pt" width="252"> <p align="center" class="MsoNormal" style="text-align:center;line-height:normal;   page-break-after:avoid"><span lang="EN-GB">2.24</span><span lang="EN-GB"><br/>   (2.11-2.38)</span></p> </td> </tr> <tr> <td style="width:207.0pt;border:solid black 1.0pt;border-top:none;   padding:.75pt 4.55pt 0in 4.55pt" width="276"> <p align="center" class="MsoNormal" style="text-align:center;line-height:normal;   page-break-after:avoid"><span lang="EN-GB">AUC/Dose</span></p> <p align="center" class="MsoNormal" style="text-align:center;line-height:normal;   page-break-after:avoid"><span lang="EN-GB">(IU*h/dL per IU/kg)</span></p> </td> <td style="width:189.0pt;border-top:none;border-left:none;   border-bottom:solid black 1.0pt;border-right:solid black 1.0pt;padding:.75pt 4.55pt 0in 4.55pt" width="252"> <p align="center" class="MsoNormal" style="text-align:center;line-height:normal;   page-break-after:avoid"><span lang="EN-GB">51.2</span><span lang="EN-GB"><br/>   (45.0-58.4)</span></p> </td> </tr> <tr> <td style="width:207.0pt;border:solid black 1.0pt;border-top:none;   padding:.75pt 4.55pt 0in 4.55pt" width="276"> <p align="center" class="MsoNormal" style="text-align:center;line-height:normal;   page-break-after:avoid"><span lang="EN-GB">C<sub>max</sub> (IU/dL)</span></p> </td> <td style="width:189.0pt;border-top:none;border-left:none;   border-bottom:solid black 1.0pt;border-right:solid black 1.0pt;padding:.75pt 4.55pt 0in 4.55pt" width="252"> <p align="center" class="MsoNormal" style="text-align:center;line-height:normal;   page-break-after:avoid"><span lang="EN-GB">108</span><span lang="EN-GB"><br/>   (101-115)</span></p> </td> </tr> <tr> <td style="width:207.0pt;border:solid black 1.0pt;border-top:none;   padding:.75pt 4.55pt 0in 4.55pt" width="276"> <p align="center" class="MsoNormal" style="text-align:center;line-height:normal;   page-break-after:avoid"><span lang="EN-GB">CL (mL/h/kg)</span></p> </td> <td style="width:189.0pt;border-top:none;border-left:none;   border-bottom:solid black 1.0pt;border-right:solid black 1.0pt;padding:.75pt 4.55pt 0in 4.55pt" width="252"> <p align="center" class="MsoNormal" style="text-align:center;line-height:normal;   page-break-after:avoid"><span lang="EN-GB">1.95</span><span lang="EN-GB"><br/>   (1.71-2.22)</span></p> </td> </tr> <tr> <td style="width:207.0pt;border:solid black 1.0pt;border-top:none;   padding:.75pt 4.55pt 0in 4.55pt" width="276"> <p align="center" class="MsoNormal" style="text-align:center;line-height:normal;   page-break-after:avoid"><span lang="EN-GB">t<sub></sub> (h)</span></p> </td> <td style="width:189.0pt;border-top:none;border-left:none;   border-bottom:solid black 1.0pt;border-right:solid black 1.0pt;padding:.75pt 4.55pt 0in 4.55pt" width="252"> <p align="center" class="MsoNormal" style="text-align:center;line-height:normal;   page-break-after:avoid"><span lang="EN-GB">19.0</span><span lang="EN-GB"><br/>   (17.0-21.1)</span></p> </td> </tr> <tr> <td style="width:207.0pt;border:solid black 1.0pt;border-top:none;   padding:.75pt 4.55pt 0in 4.55pt" width="276"> <p align="center" class="MsoNormal" style="text-align:center;line-height:normal;   page-break-after:avoid"><span lang="EN-GB">MRT (h)</span></p> </td> <td style="width:189.0pt;border-top:none;border-left:none;   border-bottom:solid black 1.0pt;border-right:solid black 1.0pt;padding:.75pt 4.55pt 0in 4.55pt" width="252"> <p align="center" class="MsoNormal" style="text-align:center;line-height:normal;   page-break-after:avoid"><span lang="EN-GB">25.2</span><span lang="EN-GB"><br/>   (22.7-27.9)</span></p> </td> </tr> <tr> <td style="width:207.0pt;border:solid black 1.0pt;border-top:none;   padding:.75pt 4.55pt 0in 4.55pt" width="276"> <p align="center" class="MsoNormal" style="text-align:center;line-height:normal;   page-break-after:avoid"><span lang="EN-GB">V<sub>ss</sub> (mL/kg)</span></p> </td> <td style="width:189.0pt;border-top:none;border-left:none;   border-bottom:solid black 1.0pt;border-right:solid black 1.0pt;padding:.75pt 4.55pt 0in 4.55pt" width="252"> <p align="center" class="MsoNormal" style="text-align:center;line-height:normal;   page-break-after:avoid"><span lang="EN-GB">49.1</span><span lang="EN-GB"><br/>   (46.6-51.7)</span></p> </td> </tr> </table><p class="MsoNormal" style="line-height:normal;text-autospace:none"><sup><span lang="EN-GB">1</span></sup><span lang="EN-GB"> Pharmacokinetic parameters are presented in Geometric Mean (95% CI) </span></p><p class="MsoNormal" style="line-height:normal"><span lang="EN-GB">Abbreviations: CI = confidence interval; C<sub>max</sub>= maximum activity; AUC = area under the FVIII activity time curve; t<sub></sub>= terminal half-life; CL = clearance; V<sub>ss</sub> = volume of distribution at steady-state; MRT = mean residence time.</span></p><p class="MsoNormal" style="line-height:normal"></p><p class="MsoNormal" style="margin-right:-.1pt;line-height:normal;page-break-after: avoid"><b><span lang="EN-GB">Table 4: Pharmacokinetic parameters of ELOCTA using the chromogenic assay</span></b></p><table border="0" cellpadding="0" cellspacing="0" class="MsoNormalTable" style="width:5.5in;margin-left:4.55pt;border-collapse:collapse" width="528"> <tr> <td rowspan="2" style="width:207.0pt;border:solid black 1.0pt;   padding:.75pt 4.55pt 0in 4.55pt" width="276"> <p align="center" class="MsoNormal" style="text-align:center;line-height:normal;   page-break-after:avoid"><b><span lang="EN-GB">Pharmacokinetic parameters<sup>1</sup></span></b></p> <p class="MsoNormal" style="line-height:normal;page-break-after:avoid"></p> </td> <td style="width:189.0pt;border:solid black 1.0pt;border-left:none;   padding:.75pt 4.55pt 0in 4.55pt" width="252"> <p align="center" class="MsoNormal" style="text-align:center;line-height:normal;   page-break-after:avoid"><b><span lang="EN-GB">ELOCTA </span></b></p> <p align="center" class="MsoNormal" style="text-align:center;line-height:normal;   page-break-after:avoid"><b><span lang="EN-GB">(95% CI)</span></b></p> </td> </tr> <tr> <td style="width:189.0pt;border-top:none;border-left:none;   border-bottom:solid black 1.0pt;border-right:solid black 1.0pt;padding:.75pt 4.55pt 0in 4.55pt" width="252"> <p align="center" class="MsoNormal" style="text-align:center;line-height:normal;   page-break-after:avoid"><span lang="EN-GB">N=27</span></p> </td> </tr> <tr> <td style="width:207.0pt;border:solid black 1.0pt;border-top:none;   padding:.75pt 4.55pt 0in 4.55pt" width="276"> <p align="center" class="MsoNormal" style="text-align:center;line-height:normal;   page-break-after:avoid"><span lang="EN-GB">Incremental Recovery (IU/dL per   IU/kg)</span></p> </td> <td style="width:189.0pt;border-top:none;border-left:none;   border-bottom:solid black 1.0pt;border-right:solid black 1.0pt;background:   white;padding:.75pt 4.55pt 0in 4.55pt" width="252"> <p align="center" class="MsoNormal" style="text-align:center;line-height:normal;   page-break-after:avoid"><span lang="EN-GB" style="color:black">2.49<br/>   (2.28-2.73)</span></p> </td> </tr> <tr> <td style="width:207.0pt;border:solid black 1.0pt;border-top:none;   padding:.75pt 4.55pt 0in 4.55pt" width="276"> <p align="center" class="MsoNormal" style="text-align:center;line-height:normal;   page-break-after:avoid"><span lang="EN-GB">AUC/Dose</span></p> <p align="center" class="MsoNormal" style="text-align:center;line-height:normal;   page-break-after:avoid"><span lang="EN-GB">(IU*h/dL per IU/kg)</span></p> </td> <td style="width:189.0pt;border-top:none;border-left:none;   border-bottom:solid black 1.0pt;border-right:solid black 1.0pt;background:   white;padding:.75pt 4.55pt 0in 4.55pt" width="252"> <p align="center" class="MsoNormal" style="text-align:center;line-height:normal;   page-break-after:avoid"><span lang="EN-GB" style="color:black">47.5<br/>   (41.6-54.2)</span></p> </td> </tr> <tr> <td style="width:207.0pt;border:solid black 1.0pt;border-top:none;   padding:.75pt 4.55pt 0in 4.55pt" width="276"> <p align="center" class="MsoNormal" style="text-align:center;line-height:normal;   page-break-after:avoid"><span lang="EN-GB">C<sub>max</sub> (IU/dL)</span></p> </td> <td style="width:189.0pt;border-top:none;border-left:none;   border-bottom:solid black 1.0pt;border-right:solid black 1.0pt;background:   white;padding:.75pt 4.55pt 0in 4.55pt" width="252"> <p align="center" class="MsoNormal" style="text-align:center;line-height:normal;   page-break-after:avoid"><span lang="EN-GB" style="color:black">131<br/>   (104-165)</span></p> </td> </tr> <tr> <td style="width:207.0pt;border:solid black 1.0pt;border-top:none;   padding:.75pt 4.55pt 0in 4.55pt" width="276"> <p align="center" class="MsoNormal" style="text-align:center;line-height:normal;   page-break-after:avoid"><span lang="EN-GB">CL (mL/h/kg)</span></p> </td> <td style="width:189.0pt;border-top:none;border-left:none;   border-bottom:solid black 1.0pt;border-right:solid black 1.0pt;background:   white;padding:.75pt 4.55pt 0in 4.55pt" width="252"> <p align="center" class="MsoNormal" style="text-align:center;line-height:normal;   page-break-after:avoid"><span lang="EN-GB" style="color:black">2.11<br/>   (1.85-2.41)</span></p> </td> </tr> <tr> <td style="width:207.0pt;border:solid black 1.0pt;border-top:none;   padding:.75pt 4.55pt 0in 4.55pt" width="276"> <p align="center" class="MsoNormal" style="text-align:center;line-height:normal;   page-break-after:avoid"><span lang="EN-GB">t<sub></sub> (h)</span></p> </td> <td style="width:189.0pt;border-top:none;border-left:none;   border-bottom:solid black 1.0pt;border-right:solid black 1.0pt;background:   white;padding:.75pt 4.55pt 0in 4.55pt" width="252"> <p align="center" class="MsoNormal" style="text-align:center;line-height:normal;   page-break-after:avoid"><span lang="EN-GB" style="color:black">20.9<br/>   (18.2-23.9)</span></p> </td> </tr> <tr> <td style="width:207.0pt;border:solid black 1.0pt;border-top:none;   padding:.75pt 4.55pt 0in 4.55pt" width="276"> <p align="center" class="MsoNormal" style="text-align:center;line-height:normal;   page-break-after:avoid"><span lang="EN-GB">MRT (h)</span></p> </td> <td style="width:189.0pt;border-top:none;border-left:none;   border-bottom:solid black 1.0pt;border-right:solid black 1.0pt;background:   white;padding:.75pt 4.55pt 0in 4.55pt" width="252"> <p align="center" class="MsoNormal" style="text-align:center;line-height:normal;   page-break-after:avoid"><span lang="EN-GB" style="color:black">25.0<br/>   (22.4-27.8)</span></p> </td> </tr> <tr> <td style="width:207.0pt;border:solid black 1.0pt;border-top:none;   padding:.75pt 4.55pt 0in 4.55pt" width="276"> <p align="center" class="MsoNormal" style="text-align:center;line-height:normal;   page-break-after:avoid"><span lang="EN-GB">V<sub>ss</sub> (mL/kg)</span></p> </td> <td style="width:189.0pt;border-top:none;border-left:none;   border-bottom:solid black 1.0pt;border-right:solid black 1.0pt;background:   white;padding:.75pt 4.55pt 0in 4.55pt" width="252"> <p align="center" class="MsoNormal" style="text-align:center;line-height:normal;   page-break-after:avoid"><span lang="EN-GB" style="color:black">52.6<br/>   (47.4-58.3)</span></p> </td> </tr> </table><p class="MsoNormal" style="line-height:normal;text-autospace:none"><sup><span lang="EN-GB">1</span></sup><span lang="EN-GB"> Pharmacokinetic parameters are presented in Geometric Mean (95% CI) </span></p><p class="MsoNormal" style="line-height:normal"><span lang="EN-GB">Abbreviations: CI = confidence interval; C<sub>max</sub>= maximum activity; AUC = area under the FVIII activity time curve; t<sub></sub>= terminal half-life; CL = clearance; V<sub>ss</sub> = volume of distribution at steady-state; MRT = mean residence time.</span></p><p class="MsoNormal" style="line-height:normal"></p><p class="MsoNormal" style="line-height:normal"><span lang="EN-GB">The PK data demonstrate that ELOCTA has a prolonged circulating half-life. </span></p><p class="MsoNormal" style="line-height:normal"></p><p class="MsoNormal" style="line-height:normal;page-break-after:avoid"><u><span lang="EN-GB">Paediatric population</span></u></p><p class="MsoNormal" style="line-height:normal"><span lang="EN-GB">Pharmacokinetic parameters of ELOCTA were determined for adolescents in study I (</span><span lang="EN-GB">pharmacokinetic</span><span lang="EN-GB"> sampling was conducted pre-dose followed by assessment at multiple time points up to 120 hours (5 days) post-dose) and for children in study II (</span><span lang="EN-GB">pharmacokinetic </span><span lang="EN-GB">sampling was conducted pre-dose followed by assessment at multiple time points up to 72 hours (3 days) post-dose). Tables 5 and 6 present the pharmacokinetic parameters calculated from the paediatric data of subjects less than 18 years of age.</span></p><p class="MsoNormal" style="line-height:normal"></p><p class="MsoNormal" style="page-break-after:avoid"><a name="ProposedTable5PKforAdolescents"><b><span lang="EN-GB">Table 5: </span></b></a><b><span lang="EN-GB">Pharmacokinetic parameters of ELOCTA for paediatrics </span></b><b><span lang="EN-GB">using the one-stage clotting assay</span></b></p><table border="1" cellpadding="0" cellspacing="0" class="MsoNormalTable" style="width:100.0%;border-collapse:collapse;border:none" width="100%"> <thead> <tr style="height:17.25pt"> <td rowspan="3" style="width:26.3%;border:solid windowtext 1.0pt;    padding:0in 5.4pt 0in 5.4pt;height:17.25pt" width="26%"> <p align="center" class="C-TableHeader" style="text-align:center"><span lang="EN-GB">Pharmacokinetic parameters<sup>1</sup></span></p> </td> <td colspan="2" style="width:43.68%;border:solid windowtext 1.0pt;    border-left:none;padding:0in 5.4pt 0in 5.4pt;height:17.25pt" valign="top" width="43%"> <p align="center" class="C-TableHeader" style="text-align:center"><span lang="EN-GB">Study II</span></p> </td> <td rowspan="9" style="width:2.9%;border:solid windowtext 1.0pt;    border-left:none;padding:0in 5.4pt 0in 5.4pt;height:17.25pt" valign="top" width="2%"> <p align="center" class="C-TableHeader" style="text-align:center"></p> </td> <td style="width:27.12%;border:solid windowtext 1.0pt;    border-left:none;padding:0in 5.4pt 0in 5.4pt;height:17.25pt" valign="top" width="27%"> <p align="center" class="C-TableHeader" style="text-align:center"><span lang="EN-GB">Study I*</span></p> </td> </tr> <tr style="height:21.05pt"> <td style="width:23.32%;border-top:none;border-left:    none;border-bottom:solid windowtext 1.0pt;border-right:solid windowtext 1.0pt;    padding:0in 5.4pt 0in 5.4pt;height:21.05pt" valign="top" width="23%"> <p align="center" class="C-TableHeader" style="text-align:center"><span lang="EN-GB">&lt;6 years</span></p> </td> <td style="width:20.36%;border-top:none;border-left:    none;border-bottom:solid windowtext 1.0pt;border-right:solid windowtext 1.0pt;    padding:0in 5.4pt 0in 5.4pt;height:21.05pt" valign="top" width="20%"> <p align="center" class="C-TableHeader" style="text-align:center"><span lang="EN-GB">6 to &lt;12 years</span></p> </td> <td style="width:27.12%;border-top:none;border-left:    none;border-bottom:solid windowtext 1.0pt;border-right:solid windowtext 1.0pt;    padding:0in 5.4pt 0in 5.4pt;height:21.05pt" valign="top" width="27%"> <p align="center" class="C-TableHeader" style="text-align:center"><span lang="EN-GB">12 to &lt;18 years</span></p> </td> </tr> <tr style="height:17.7pt"> <td style="width:23.32%;border-top:none;border-left:    none;border-bottom:solid windowtext 1.0pt;border-right:solid windowtext 1.0pt;    padding:0in 5.4pt 0in 5.4pt;height:17.7pt" valign="top" width="23%"> <p align="center" class="C-TableHeader" style="text-align:center"><span lang="EN-GB" style="font-weight:normal">N = 23</span></p> </td> <td style="width:20.36%;border-top:none;border-left:    none;border-bottom:solid windowtext 1.0pt;border-right:solid windowtext 1.0pt;    padding:0in 5.4pt 0in 5.4pt;height:17.7pt" valign="top" width="20%"> <p align="center" class="C-TableHeader" style="text-align:center"><span lang="EN-GB" style="font-weight:normal">N = 31</span></p> </td> <td style="width:27.12%;border-top:none;border-left:    none;border-bottom:solid windowtext 1.0pt;border-right:solid windowtext 1.0pt;    padding:0in 5.4pt 0in 5.4pt;height:17.7pt" valign="top" width="27%"> <p align="center" class="C-TableHeader" style="text-align:center"><span lang="EN-GB" style="font-weight:normal">N = 11</span></p> </td> </tr> </thead> <tr style="height:24.25pt"> <td style="width:26.3%;border:solid windowtext 1.0pt;   border-top:none;padding:0in 5.4pt 0in 5.4pt;height:24.25pt" valign="top" width="26%"> <p align="center" class="C-TableText" style="text-align:center;page-break-after:   avoid"><span lang="EN-GB">Incremental Recovery (IU/dL per IU/kg)</span></p> </td> <td style="width:23.32%;border-top:none;border-left:   none;border-bottom:solid windowtext 1.0pt;border-right:solid windowtext 1.0pt;   padding:0in 5.4pt 0in 5.4pt;height:24.25pt" valign="top" width="23%"> <p align="center" class="C-TableText" style="text-align:center;page-break-after:   avoid"><span lang="EN-GB">1.90<br/>   (1.79-2.02)</span></p> </td> <td style="width:20.36%;border-top:none;border-left:   none;border-bottom:solid windowtext 1.0pt;border-right:solid windowtext 1.0pt;   padding:0in 5.4pt 0in 5.4pt;height:24.25pt" valign="top" width="20%"> <p align="center" class="C-TableText" style="text-align:center;page-break-after:   avoid"><span lang="EN-GB">2.30<br/>   (2.04-2.59)</span></p> </td> <td style="width:27.12%;border-top:none;border-left:   none;border-bottom:solid windowtext 1.0pt;border-right:solid windowtext 1.0pt;   padding:0in 5.4pt 0in 5.4pt;height:24.25pt" valign="top" width="27%"> <p align="center" class="C-TableText" style="text-align:center;page-break-after:   avoid"><span lang="EN-GB">1.81<br/>   (1.56-2.09)</span></p> </td> </tr> <tr style="height:22.45pt"> <td style="width:26.3%;border:solid windowtext 1.0pt;   border-top:none;padding:0in 5.4pt 0in 5.4pt;height:22.45pt" valign="top" width="26%"> <p align="center" class="C-TableText" style="text-align:center;page-break-after:   avoid"><span lang="EN-GB">AUC/Dose<br/>   (IU*h/dL per IU/kg)</span></p> </td> <td style="width:23.32%;border-top:none;border-left:   none;border-bottom:solid windowtext 1.0pt;border-right:solid windowtext 1.0pt;   padding:0in 5.4pt 0in 5.4pt;height:22.45pt" valign="top" width="23%"> <p align="center" class="C-TableText" style="text-align:center;page-break-after:   avoid"><span lang="EN-GB">28.9<br/>   (25.6-32.7)</span></p> </td> <td style="width:20.36%;border-top:none;border-left:   none;border-bottom:solid windowtext 1.0pt;border-right:solid windowtext 1.0pt;   padding:0in 5.4pt 0in 5.4pt;height:22.45pt" valign="top" width="20%"> <p align="center" class="C-TableText" style="text-align:center;page-break-after:   avoid"><span lang="EN-GB">38.4<br/>   (33.2-44.4)</span></p> </td> <td style="width:27.12%;border-top:none;border-left:   none;border-bottom:solid windowtext 1.0pt;border-right:solid windowtext 1.0pt;   padding:0in 5.4pt 0in 5.4pt;height:22.45pt" valign="top" width="27%"> <p align="center" class="C-TableText" style="text-align:center;page-break-after:   avoid"><span lang="EN-GB">38.2<br/>   (34.0-42.9)</span></p> </td> </tr> <tr style="height:24.45pt"> <td style="width:26.3%;border:solid windowtext 1.0pt;   border-top:none;padding:0in 5.4pt 0in 5.4pt;height:24.45pt" valign="top" width="26%"> <p align="center" class="C-TableText" style="text-align:center;page-break-after:   avoid"><span lang="EN-GB">t<sub></sub> (h)</span></p> </td> <td style="width:23.32%;border-top:none;border-left:   none;border-bottom:solid windowtext 1.0pt;border-right:solid windowtext 1.0pt;   padding:0in 5.4pt 0in 5.4pt;height:24.45pt" valign="top" width="23%"> <p align="center" class="C-TableText" style="text-align:center;page-break-after:   avoid"><span lang="EN-GB">12.3<br/>   (11.0-13.7)</span></p> </td> <td style="width:20.36%;border-top:none;border-left:   none;border-bottom:solid windowtext 1.0pt;border-right:solid windowtext 1.0pt;   padding:0in 5.4pt 0in 5.4pt;height:24.45pt" valign="top" width="20%"> <p align="center" class="C-TableText" style="text-align:center;page-break-after:   avoid"><span lang="EN-GB">13.5<br/>   (11.4-15.8)</span></p> </td> <td style="width:27.12%;border-top:none;border-left:   none;border-bottom:solid windowtext 1.0pt;border-right:solid windowtext 1.0pt;   padding:0in 5.4pt 0in 5.4pt;height:24.45pt" valign="top" width="27%"> <p align="center" class="C-TableText" style="text-align:center;page-break-after:   avoid"><span lang="EN-GB">16.0<br/>   (13.9-18.5)</span></p> </td> </tr> <tr style="page-break-inside:avoid;height:11.5pt"> <td style="width:26.3%;border:solid windowtext 1.0pt;   border-top:none;padding:0in 5.4pt 0in 5.4pt;height:11.5pt" valign="top" width="26%"> <p align="center" class="C-TableText" style="text-align:center;page-break-after:   avoid"><span lang="EN-GB">MRT (h)</span></p> </td> <td style="width:23.32%;border-top:none;border-left:   none;border-bottom:solid windowtext 1.0pt;border-right:solid windowtext 1.0pt;   padding:0in 5.4pt 0in 5.4pt;height:11.5pt" valign="top" width="23%"> <p align="center" class="C-TableText" style="text-align:center;page-break-after:   avoid"><span lang="EN-GB">16.8<br/>   (15.1-18.6)</span></p> </td> <td style="width:20.36%;border-top:none;border-left:   none;border-bottom:solid windowtext 1.0pt;border-right:solid windowtext 1.0pt;   padding:0in 5.4pt 0in 5.4pt;height:11.5pt" valign="top" width="20%"> <p align="center" class="C-TableText" style="text-align:center;page-break-after:   avoid"><span lang="EN-GB">19.0<br/>   (16.2-22.3)</span></p> </td> <td style="width:27.12%;border-top:none;border-left:   none;border-bottom:solid windowtext 1.0pt;border-right:solid windowtext 1.0pt;   padding:0in 5.4pt 0in 5.4pt;height:11.5pt" valign="top" width="27%"> <p align="center" class="C-TableText" style="text-align:center;page-break-after:   avoid"><span lang="EN-GB">22.7<br/>   (19.7-26.1)</span></p> </td> </tr> <tr style="height:12.2pt"> <td style="width:26.3%;border:solid windowtext 1.0pt;   border-top:none;padding:0in 5.4pt 0in 5.4pt;height:12.2pt" valign="top" width="26%"> <p align="center" class="C-TableText" style="text-align:center;page-break-after:   avoid"><span lang="EN-GB">CL (mL/h/kg)</span></p> </td> <td style="width:23.32%;border-top:none;border-left:   none;border-bottom:solid windowtext 1.0pt;border-right:solid windowtext 1.0pt;   padding:0in 5.4pt 0in 5.4pt;height:12.2pt" valign="top" width="23%"> <p align="center" class="C-TableText" style="text-align:center;page-break-after:   avoid"><span lang="EN-GB">3.46<br/>   (3.06-3.91)</span></p> </td> <td style="width:20.36%;border-top:none;border-left:   none;border-bottom:solid windowtext 1.0pt;border-right:solid windowtext 1.0pt;   padding:0in 5.4pt 0in 5.4pt;height:12.2pt" valign="top" width="20%"> <p align="center" class="C-TableText" style="text-align:center;page-break-after:   avoid"><span lang="EN-GB">2.61<br/>   (2.26-3.01)</span></p> </td> <td style="width:27.12%;border-top:none;border-left:   none;border-bottom:solid windowtext 1.0pt;border-right:solid windowtext 1.0pt;   padding:0in 5.4pt 0in 5.4pt;height:12.2pt" valign="top" width="27%"> <p align="center" class="C-TableText" style="text-align:center;page-break-after:   avoid"><span lang="EN-GB">2.62<br/>   (2.33-2.95)</span></p> </td> </tr> <tr style="page-break-inside:avoid;height:12.2pt"> <td style="width:26.3%;border:solid windowtext 1.0pt;   border-top:none;padding:0in 5.4pt 0in 5.4pt;height:12.2pt" valign="top" width="26%"> <p align="center" class="C-TableText" style="text-align:center;page-break-after:   avoid"><span lang="EN-GB">V<sub>ss</sub> (mL/kg)</span></p> </td> <td style="width:23.32%;border-top:none;border-left:   none;border-bottom:solid windowtext 1.0pt;border-right:solid windowtext 1.0pt;   padding:0in 5.4pt 0in 5.4pt;height:12.2pt" valign="top" width="23%"> <p align="center" class="C-TableText" style="text-align:center"><span lang="EN-GB">57.9<br/>   (54.1-62.0)</span></p> </td> <td style="width:20.36%;border-top:none;border-left:   none;border-bottom:solid windowtext 1.0pt;border-right:solid windowtext 1.0pt;   padding:0in 5.4pt 0in 5.4pt;height:12.2pt" valign="top" width="20%"> <p align="center" class="C-TableText" style="text-align:center"><span lang="EN-GB">49.5<br/>   (44.1-55.6)</span></p> </td> <td style="width:27.12%;border-top:none;border-left:   none;border-bottom:solid windowtext 1.0pt;border-right:solid windowtext 1.0pt;   padding:0in 5.4pt 0in 5.4pt;height:12.2pt" valign="top" width="27%"> <p align="center" class="C-TableText" style="text-align:center"><span lang="EN-GB">59.4<br/>   (52.7-67.0)</span></p> </td> </tr> <tr style="page-break-inside:avoid;height:12.2pt"> <td colspan="5" style="width:100.0%;border:none;   padding:0in 5.4pt 0in 5.4pt;height:12.2pt" valign="top" width="100%"> <p class="MsoNormal" style="line-height:normal"><sup><span lang="EN-GB">1</span></sup><span lang="EN-GB">Pharmacokinetic parameters are presented   in Geometric Mean (95% CI) </span></p> <p class="MsoNormal" style="line-height:normal"><span lang="EN-GB">Abbreviations:   CI = confidence interval; AUC = area under the FVIII activity time curve; t<sub>   </sub>= terminal halflife; </span></p> <p class="MsoNormal" style="line-height:normal"><span lang="EN-GB">CL =   clearance; MRT = mean residence time; V<sub>ss</sub> = volume of distribution   at steady-state</span></p> <p class="MsoNormal" style="line-height:normal"><span lang="EN-GB">*Pharmacokinetic   parameters in 12 to &lt;18 years included subjects from all the arms in   Study I with different sampling schemes </span></p> </td> </tr> </table><p class="MsoNormal" style="line-height:normal"></p><p class="MsoNormal" style="page-break-after:avoid"><b><span lang="EN-GB">Table 6: Pharmacokinetic parameters of ELOCTA for paediatrics </span></b><b><span lang="EN-GB">using the chromogenic assay</span></b></p><table border="1" cellpadding="0" cellspacing="0" class="MsoNormalTable" style="width:100.0%;border-collapse:collapse;border:none" width="100%"> <thead> <tr style="height:17.25pt"> <td rowspan="3" style="width:26.3%;border:solid windowtext 1.0pt;    padding:0in 5.4pt 0in 5.4pt;height:17.25pt" width="26%"> <p align="center" class="C-TableHeader" style="text-align:center"><span lang="EN-GB">Pharmacokinetic parameters<sup>1</sup></span></p> </td> <td colspan="2" style="width:43.68%;border:solid windowtext 1.0pt;    border-left:none;padding:0in 5.4pt 0in 5.4pt;height:17.25pt" valign="top" width="43%"> <p align="center" class="C-TableHeader" style="text-align:center"><span lang="EN-GB">Study II</span></p> </td> <td rowspan="9" style="width:2.9%;border:solid windowtext 1.0pt;    border-left:none;padding:0in 5.4pt 0in 5.4pt;height:17.25pt" valign="top" width="2%"> <p align="center" class="C-TableHeader" style="text-align:center"></p> </td> <td style="width:27.12%;border:solid windowtext 1.0pt;    border-left:none;padding:0in 5.4pt 0in 5.4pt;height:17.25pt" valign="top" width="27%"> <p align="center" class="C-TableHeader" style="text-align:center"><span lang="EN-GB">Study I*</span></p> </td> </tr> <tr style="height:21.05pt"> <td style="width:23.32%;border-top:none;border-left:    none;border-bottom:solid windowtext 1.0pt;border-right:solid windowtext 1.0pt;    padding:0in 5.4pt 0in 5.4pt;height:21.05pt" valign="top" width="23%"> <p align="center" class="C-TableHeader" style="text-align:center"><span lang="EN-GB">&lt;6 years</span></p> </td> <td style="width:20.36%;border-top:none;border-left:    none;border-bottom:solid windowtext 1.0pt;border-right:solid windowtext 1.0pt;    padding:0in 5.4pt 0in 5.4pt;height:21.05pt" valign="top" width="20%"> <p align="center" class="C-TableHeader" style="text-align:center"><span lang="EN-GB">6 to &lt;12 years</span></p> </td> <td style="width:27.12%;border-top:none;border-left:    none;border-bottom:solid windowtext 1.0pt;border-right:solid windowtext 1.0pt;    padding:0in 5.4pt 0in 5.4pt;height:21.05pt" valign="top" width="27%"> <p align="center" class="C-TableHeader" style="text-align:center"><span lang="EN-GB">12 to &lt;18 years</span></p> </td> </tr> <tr style="height:17.7pt"> <td style="width:23.32%;border-top:none;border-left:    none;border-bottom:solid windowtext 1.0pt;border-right:solid windowtext 1.0pt;    padding:0in 5.4pt 0in 5.4pt;height:17.7pt" valign="top" width="23%"> <p align="center" class="C-TableHeader" style="text-align:center"><span lang="EN-GB" style="font-weight:normal">N = 24</span></p> </td> <td style="width:20.36%;border-top:none;border-left:    none;border-bottom:solid windowtext 1.0pt;border-right:solid windowtext 1.0pt;    padding:0in 5.4pt 0in 5.4pt;height:17.7pt" valign="top" width="20%"> <p align="center" class="C-TableHeader" style="text-align:center"><span lang="EN-GB" style="font-weight:normal">N = 27</span></p> </td> <td style="width:27.12%;border-top:none;border-left:    none;border-bottom:solid windowtext 1.0pt;border-right:solid windowtext 1.0pt;    padding:0in 5.4pt 0in 5.4pt;height:17.7pt" valign="top" width="27%"> <p align="center" class="C-TableHeader" style="text-align:center"><span lang="EN-GB" style="font-weight:normal">N = 11</span></p> </td> </tr> </thead> <tr style="height:24.25pt"> <td style="width:26.3%;border:solid windowtext 1.0pt;   border-top:none;padding:0in 5.4pt 0in 5.4pt;height:24.25pt" valign="top" width="26%"> <p align="center" class="C-TableText" style="text-align:center;page-break-after:   avoid"><span lang="EN-GB">Incremental Recovery (IU/dL per IU/kg)</span></p> </td> <td style="width:23.32%;border-top:none;border-left:   none;border-bottom:solid windowtext 1.0pt;border-right:solid windowtext 1.0pt;   padding:0in 5.4pt 0in 5.4pt;height:24.25pt" valign="top" width="23%"> <p align="center" class="C-TableText" style="text-align:center;page-break-after:   avoid"><span lang="EN-GB">1.88<br/>   (1.73-2.05)</span></p> </td> <td style="width:20.36%;border-top:none;border-left:   none;border-bottom:solid windowtext 1.0pt;border-right:solid windowtext 1.0pt;   padding:0in 5.4pt 0in 5.4pt;height:24.25pt" valign="top" width="20%"> <p align="center" class="C-TableText" style="text-align:center;page-break-after:   avoid"><span lang="EN-GB">2.08<br/>   (1.91-2.25)</span></p> </td> <td style="width:27.12%;border-top:none;border-left:   none;border-bottom:solid windowtext 1.0pt;border-right:solid windowtext 1.0pt;   padding:0in 5.4pt 0in 5.4pt;height:24.25pt" valign="top" width="27%"> <p align="center" class="C-TableText" style="text-align:center;page-break-after:   avoid"><span lang="EN-GB">1.91<br/>   (1.61-2.27)</span></p> </td> </tr> <tr style="height:22.45pt"> <td style="width:26.3%;border:solid windowtext 1.0pt;   border-top:none;padding:0in 5.4pt 0in 5.4pt;height:22.45pt" valign="top" width="26%"> <p align="center" class="C-TableText" style="text-align:center;page-break-after:   avoid"><span lang="EN-GB">AUC/Dose<br/>   (IU*h/dL per IU/kg)</span></p> </td> <td style="width:23.32%;border-top:none;border-left:   none;border-bottom:solid windowtext 1.0pt;border-right:solid windowtext 1.0pt;   padding:0in 5.4pt 0in 5.4pt;height:22.45pt" valign="top" width="23%"> <p align="center" class="C-TableText" style="text-align:center;page-break-after:   avoid"><span lang="EN-GB">25.9<br/>   (23.4-28.7)</span></p> </td> <td style="width:20.36%;border-top:none;border-left:   none;border-bottom:solid windowtext 1.0pt;border-right:solid windowtext 1.0pt;   padding:0in 5.4pt 0in 5.4pt;height:22.45pt" valign="top" width="20%"> <p align="center" class="C-TableText" style="text-align:center;page-break-after:   avoid"><span lang="EN-GB">32.8<br/>   (28.2-38.2)</span></p> </td> <td style="width:27.12%;border-top:none;border-left:   none;border-bottom:solid windowtext 1.0pt;border-right:solid windowtext 1.0pt;   padding:0in 5.4pt 0in 5.4pt;height:22.45pt" valign="top" width="27%"> <p align="center" class="C-TableText" style="text-align:center;page-break-after:   avoid"><span lang="EN-GB">40.8<br/>   (29.3-56.7)</span></p> </td> </tr> <tr style="height:24.45pt"> <td style="width:26.3%;border:solid windowtext 1.0pt;   border-top:none;padding:0in 5.4pt 0in 5.4pt;height:24.45pt" valign="top" width="26%"> <p align="center" class="C-TableText" style="text-align:center;page-break-after:   avoid"><span lang="EN-GB">t<sub></sub> (h)</span></p> </td> <td style="width:23.32%;border-top:none;border-left:   none;border-bottom:solid windowtext 1.0pt;border-right:solid windowtext 1.0pt;   padding:0in 5.4pt 0in 5.4pt;height:24.45pt" valign="top" width="23%"> <p align="center" class="C-TableText" style="text-align:center;page-break-after:   avoid"><span lang="EN-GB">14.3<br/>   (12.6-16.2)</span></p> </td> <td style="width:20.36%;border-top:none;border-left:   none;border-bottom:solid windowtext 1.0pt;border-right:solid windowtext 1.0pt;   padding:0in 5.4pt 0in 5.4pt;height:24.45pt" valign="top" width="20%"> <p align="center" class="C-TableText" style="text-align:center;page-break-after:   avoid"><span lang="EN-GB">15.9<br/>   (13.8-18.2)</span></p> </td> <td style="width:27.12%;border-top:none;border-left:   none;border-bottom:solid windowtext 1.0pt;border-right:solid windowtext 1.0pt;   padding:0in 5.4pt 0in 5.4pt;height:24.45pt" valign="top" width="27%"> <p align="center" class="C-TableText" style="text-align:center;page-break-after:   avoid"><span lang="EN-GB">17.5<br/>   (12.7-24.0)</span></p> </td> </tr> <tr style="page-break-inside:avoid;height:11.5pt"> <td style="width:26.3%;border:solid windowtext 1.0pt;   border-top:none;padding:0in 5.4pt 0in 5.4pt;height:11.5pt" valign="top" width="26%"> <p align="center" class="C-TableText" style="text-align:center;page-break-after:   avoid"><span lang="EN-GB">MRT (h)</span></p> </td> <td style="width:23.32%;border-top:none;border-left:   none;border-bottom:solid windowtext 1.0pt;border-right:solid windowtext 1.0pt;   padding:0in 5.4pt 0in 5.4pt;height:11.5pt" valign="top" width="23%"> <p align="center" class="C-TableText" style="text-align:center;page-break-after:   avoid"><span lang="EN-GB">17.2<br/>   (15.4-19.3)</span></p> </td> <td style="width:20.36%;border-top:none;border-left:   none;border-bottom:solid windowtext 1.0pt;border-right:solid windowtext 1.0pt;   padding:0in 5.4pt 0in 5.4pt;height:11.5pt" valign="top" width="20%"> <p align="center" class="C-TableText" style="text-align:center;page-break-after:   avoid"><span lang="EN-GB">20.7<br/>   (18.0-23.8)</span></p> </td> <td style="width:27.12%;border-top:none;border-left:   none;border-bottom:solid windowtext 1.0pt;border-right:solid windowtext 1.0pt;   padding:0in 5.4pt 0in 5.4pt;height:11.5pt" valign="top" width="27%"> <p align="center" class="C-TableText" style="text-align:center;page-break-after:   avoid"><span lang="EN-GB">23.5<br/>   (17.0-32.4)</span></p> </td> </tr> <tr style="height:12.2pt"> <td style="width:26.3%;border:solid windowtext 1.0pt;   border-top:none;padding:0in 5.4pt 0in 5.4pt;height:12.2pt" valign="top" width="26%"> <p align="center" class="C-TableText" style="text-align:center;page-break-after:   avoid"><span lang="EN-GB">CL (mL/h/kg)</span></p> </td> <td style="width:23.32%;border-top:none;border-left:   none;border-bottom:solid windowtext 1.0pt;border-right:solid windowtext 1.0pt;   padding:0in 5.4pt 0in 5.4pt;height:12.2pt" valign="top" width="23%"> <p align="center" class="C-TableText" style="text-align:center;page-break-after:   avoid"><span lang="EN-GB">3.86<br/>   (3.48-4.28)</span></p> </td> <td style="width:20.36%;border-top:none;border-left:   none;border-bottom:solid windowtext 1.0pt;border-right:solid windowtext 1.0pt;   padding:0in 5.4pt 0in 5.4pt;height:12.2pt" valign="top" width="20%"> <p align="center" class="C-TableText" style="text-align:center;page-break-after:   avoid"><span lang="EN-GB">3.05<br/>   (2.62-3.55)</span></p> </td> <td style="width:27.12%;border-top:none;border-left:   none;border-bottom:solid windowtext 1.0pt;border-right:solid windowtext 1.0pt;   padding:0in 5.4pt 0in 5.4pt;height:12.2pt" valign="top" width="27%"> <p align="center" class="C-TableText" style="text-align:center;page-break-after:   avoid"><span lang="EN-GB">2.45<br/>   (1.76-3.41)</span></p> </td> </tr> <tr style="page-break-inside:avoid;height:12.2pt"> <td style="width:26.3%;border:solid windowtext 1.0pt;   border-top:none;padding:0in 5.4pt 0in 5.4pt;height:12.2pt" valign="top" width="26%"> <p align="center" class="C-TableText" style="text-align:center;page-break-after:   avoid"><span lang="EN-GB">V<sub>ss</sub> (mL/kg)</span></p> </td> <td style="width:23.32%;border-top:none;border-left:   none;border-bottom:solid windowtext 1.0pt;border-right:solid windowtext 1.0pt;   padding:0in 5.4pt 0in 5.4pt;height:12.2pt" valign="top" width="23%"> <p align="center" class="C-TableText" style="text-align:center"><span lang="EN-GB">66.5<br/>   (59.8-73.9)</span></p> </td> <td style="width:20.36%;border-top:none;border-left:   none;border-bottom:solid windowtext 1.0pt;border-right:solid windowtext 1.0pt;   padding:0in 5.4pt 0in 5.4pt;height:12.2pt" valign="top" width="20%"> <p align="center" class="C-TableText" style="text-align:center"><span lang="EN-GB">63.1<br/>   (56.3-70.9)</span></p> </td> <td style="width:27.12%;border-top:none;border-left:   none;border-bottom:solid windowtext 1.0pt;border-right:solid windowtext 1.0pt;   padding:0in 5.4pt 0in 5.4pt;height:12.2pt" valign="top" width="27%"> <p align="center" class="C-TableText" style="text-align:center"><span lang="EN-GB">57.6<br/>   (50.2-65.9)</span></p> </td> </tr> <tr style="page-break-inside:avoid;height:12.2pt"> <td colspan="5" style="width:100.0%;border:none;   padding:0in 5.4pt 0in 5.4pt;height:12.2pt" valign="top" width="100%"> <p class="MsoNormal" style="line-height:normal"><sup><span lang="EN-GB">1</span></sup><span lang="EN-GB">Pharmacokinetic parameters are presented   in Geometric Mean (95% CI) </span></p> <p class="MsoNormal" style="line-height:normal"><span lang="EN-GB">Abbreviations:   CI = confidence interval; AUC = area under the FVIII activity time curve; t<sub>   </sub>= terminal halflife; </span></p> <p class="MsoNormal" style="line-height:normal"><span lang="EN-GB">CL =   clearance; MRT = mean residence time; V<sub>ss</sub> = volume of distribution   at steady-state</span></p> <p class="MsoNormal" style="line-height:normal"><span lang="EN-GB">*   Pharmacokinetic parameters in 12 to &lt;18 years included subjects from all   the arms in Study I with different sampling schemes </span></p> </td> </tr> </table><p class="MsoNormal" style="line-height:normal"></p><p class="MsoNormal" style="line-height:normal"><span lang="EN-GB">In comparison with adolescents and adults, children less than 12 years of age may have a higher clearance and a shorter half-life which is consistent with observations of other coagulation factors. These differences should be taken into account when dosing.</span></p><p class="MsoNormal" style="line-height:normal"></p>
			</div>
		</text>
		
    	    
		
</section>
			    
    	    

			    
		               
<section>
			<title value="5.3     Preclinical safety data"/>
				<code>
					<coding>
						<system value="http://spor.ema.europa.eu/v1/example-sections"/>
						<code value="${document[n].section[n].subsection[n].typeCode}"/>
						<display value="${document[n].section[n].subsection[n].typeDisplay}"/>
					</coding>
				</code>
		<text>
			<status value="additional"/>
			<div xmlns="http://www.w3.org/1999/xhtml">
		    <p class="MsoNormal" style="line-height:normal;page-break-after:avoid"></p><p class="MsoNormal" style="line-height:normal"><span lang="EN-GB">Non-clinical data reveal no special hazard for humans based on acute and repeated dose toxicity studies (which included assessments of local toxicity and safety pharmacology). Studies to investigate genotoxicity, carcinogenicity, toxicity to reproduction or embryo-foetal development have not been conducted. In a placental transfer study, ELOCTA has been shown to cross the placenta in small amounts in mice.</span></p><p class="MsoNormal" style="line-height:normal"></p><p class="MsoNormal" style="line-height:normal"></p>
			</div>
		</text>
		
    	    
		
</section>
			    
    	    
		
</section>
			    
    	    
				
			    
						
		               
<section>
			<title value="6.       PHARMACEUTICAL PARTICULARS"/>
				<code>
					<coding>
						<system value="http://spor.ema.europa.eu/v1/example-sections"/>
						<code value="${document[n].section[n].subsection[n].typeCode}"/>
						<display value="${document[n].section[n].subsection[n].typeDisplay}"/>
					</coding>
				</code>
		<text>
			<status value="additional"/>
			<div xmlns="http://www.w3.org/1999/xhtml">
		    <p class="MsoNormal" style="line-height:normal;page-break-after:avoid"></p>
			</div>
		</text>
		
    	    

			    
		               
<section>
			<title value="6.1     List of excipients"/>
				<code>
					<coding>
						<system value="http://spor.ema.europa.eu/v1/example-sections"/>
						<code value="${document[n].section[n].subsection[n].typeCode}"/>
						<display value="${document[n].section[n].subsection[n].typeDisplay}"/>
					</coding>
				</code>
		<text>
			<status value="additional"/>
			<div xmlns="http://www.w3.org/1999/xhtml">
		    <p class="MsoNormal" style="line-height:normal;page-break-after:avoid"></p><p class="MsoNormal" style="line-height:normal;page-break-after:avoid"><u><span lang="EN-GB">Powder</span></u></p><p class="MsoNormal" style="line-height:normal;text-autospace:none"><span lang="EN-GB">Sucrose</span></p><p class="MsoNormal" style="line-height:normal;text-autospace:none"><span lang="EN-GB">Sodium chloride</span></p><p class="MsoNormal" style="line-height:normal;text-autospace:none"><span lang="EN-GB">Histidine</span></p><p class="MsoNormal" style="line-height:normal;text-autospace:none"><span lang="EN-GB">Calcium chloride dihydrate</span></p><p class="MsoNormal" style="line-height:normal;text-autospace:none"><span lang="EN-GB">Polysorbate 20</span></p><p class="MsoNormal" style="line-height:normal;text-autospace:none"><span lang="EN-GB">Sodium hydroxide (for pH adjustment)</span></p><p class="MsoNormal" style="line-height:normal;text-autospace:none"><span lang="EN-GB">Hydrochloric acid (for pH adjustment)</span></p><p class="MsoNormal" style="line-height:normal;text-autospace:none"></p><p class="MsoNormal" style="line-height:normal;page-break-after:avoid"><u><span lang="EN-GB">Solvent</span></u></p><p class="MsoNormal" style="line-height:normal;text-autospace:none"><span lang="EN-GB">Water for injections</span></p><p class="MsoNormal" style="line-height:normal"></p>
			</div>
		</text>
		
    	    
		
</section>
			    
    	    

			    
		               
<section>
			<title value="6.2     Incompatibilities"/>
				<code>
					<coding>
						<system value="http://spor.ema.europa.eu/v1/example-sections"/>
						<code value="${document[n].section[n].subsection[n].typeCode}"/>
						<display value="${document[n].section[n].subsection[n].typeDisplay}"/>
					</coding>
				</code>
		<text>
			<status value="additional"/>
			<div xmlns="http://www.w3.org/1999/xhtml">
		    <p class="MsoNormal" style="line-height:normal;page-break-after:avoid"></p><p class="MsoNormal" style="line-height:normal;text-autospace:none"><span lang="EN-GB">In the absence of compatibility studies, this medicinal product must not be mixed with other medicinal products.</span></p><p class="MsoNormal" style="line-height:normal"></p><p class="MsoNormal" style="line-height:normal"><span lang="EN-GB">Only the provided infusion set should be used because treatment failure can occur as a consequence of coagulation factor VIII adsorption to the internal surfaces of some injection equipment.</span></p><p class="MsoNormal" style="line-height:normal"></p>
			</div>
		</text>
		
    	    
		
</section>
			    
    	    

			    
		               
<section>
			<title value="6.3     Shelf life"/>
				<code>
					<coding>
						<system value="http://spor.ema.europa.eu/v1/example-sections"/>
						<code value="${document[n].section[n].subsection[n].typeCode}"/>
						<display value="${document[n].section[n].subsection[n].typeDisplay}"/>
					</coding>
				</code>
		<text>
			<status value="additional"/>
			<div xmlns="http://www.w3.org/1999/xhtml">
		    <p class="MsoNormal" style="line-height:normal;page-break-after:avoid"></p><p class="MsoNormal" style="line-height:normal;page-break-after:avoid"><u><span lang="EN-GB">Unopened vial</span></u></p><p class="MsoNormal" style="line-height:normal"><span lang="EN-GB">4 years</span></p><p class="MsoNormal" style="line-height:normal"></p><p class="MsoNormal" style="line-height:normal"><span lang="EN-GB">During the shelf-life, the product may be stored at room temperature (up to 30C) for a single period not exceeding 6 months. The date that the product is removed from refrigeration should be recorded on the carton. </span><span lang="EN-GB">After storage at room temperature, the product may not be returned to the refrigerator<i>. </i></span><span lang="EN-GB">Do not use beyond the expiry date printed on the vial or six months after removing the carton from refrigeration, whichever is earlier.</span></p><p class="MsoNormal" style="line-height:normal"></p><p class="MsoNormal" style="line-height:normal;page-break-after:avoid"><u><span lang="EN-GB">After reconstitution</span></u></p><p class="MsoNormal" style="line-height:normal"><span lang="EN-GB">After reconstitution, chemical and physical stability has been demonstrated for 6 hours when stored at room temperature (up to 30C). </span><span lang="EN-GB">Protect product from direct sunlight. </span><span lang="EN-GB">After reconstitution, if the product is not used within 6 hours, it must be discarded. </span><span lang="EN-GB">From a microbiological point of view, the product should be used immediately after reconstitution. If not used immediately, in-use storage times and conditions prior to use are the responsibility of the user.</span></p><p class="MsoNormal" style="line-height:normal"></p>
			</div>
		</text>
		
    	    
		
</section>
			    
    	    

			    
		               
<section>
			<title value="6.4     Special precautions for storage"/>
				<code>
					<coding>
						<system value="http://spor.ema.europa.eu/v1/example-sections"/>
						<code value="${document[n].section[n].subsection[n].typeCode}"/>
						<display value="${document[n].section[n].subsection[n].typeDisplay}"/>
					</coding>
				</code>
		<text>
			<status value="additional"/>
			<div xmlns="http://www.w3.org/1999/xhtml">
		    <p class="MsoNormal" style="line-height:normal;page-break-after:avoid"></p><p class="MsoNormal" style="line-height:normal"><span lang="EN-GB">Store in a refrigerator (2C - 8C). Do not freeze. Keep the vial in the outer carton in order to protect from light.</span></p><p class="MsoNormal" style="line-height:normal"></p><p class="MsoNormal" style="line-height:normal"><span lang="EN-GB">For storage conditions after reconstitution of the medicinal product, see section 6.3.</span></p><p class="MsoNormal" style="line-height:normal"></p>
			</div>
		</text>
		
    	    
		
</section>
			    
    	    

			    
		               
<section>
			<title value="6.5     Nature and contents of container"/>
				<code>
					<coding>
						<system value="http://spor.ema.europa.eu/v1/example-sections"/>
						<code value="${document[n].section[n].subsection[n].typeCode}"/>
						<display value="${document[n].section[n].subsection[n].typeDisplay}"/>
					</coding>
				</code>
		<text>
			<status value="additional"/>
			<div xmlns="http://www.w3.org/1999/xhtml">
		    <p class="MsoNormal" style="line-height:normal;page-break-after:avoid"></p><p class="MsoNormal" style="line-height:normal;page-break-after:avoid"><span lang="EN-GB">Each pack contains:</span></p><p class="MsoNormal" style="margin-left:28.35pt;text-indent:-28.35pt;line-height: normal;page-break-after:avoid"><span lang="EN-GB">-</span><span lang="EN-GB">powder in a type 1 glass vial with a chlorobutyl rubber stopper</span></p><p class="MsoNormal" style="margin-left:28.35pt;text-indent:-28.35pt;line-height: normal;page-break-after:avoid"><span lang="EN-GB">-</span><span lang="EN-GB">3 mL solvent in a type 1 glass pre-filled syringe with a bromobutyl rubber plunger stopper</span></p><p class="MsoNormal" style="margin-left:28.35pt;text-indent:-28.35pt;line-height: normal;page-break-after:avoid"><span lang="EN-GB">-</span><span lang="EN-GB">a plunger rod</span></p><p class="MsoNormal" style="margin-left:28.35pt;text-indent:-28.35pt;line-height: normal;page-break-after:avoid"><span lang="EN-GB">-</span><span lang="EN-GB">a sterile vial adapter for reconstitution</span></p><p class="MsoNormal" style="margin-left:28.35pt;text-indent:-28.35pt;line-height: normal;page-break-after:avoid"><span lang="EN-GB">-</span><span lang="EN-GB">a sterile infusion set</span></p><p class="MsoNormal" style="margin-left:28.35pt;text-indent:-28.35pt;line-height: normal"><span lang="EN-GB">-</span><span lang="EN-GB">two alcohol swabs</span></p><p class="MsoNormal" style="margin-left:28.35pt;text-indent:-28.35pt;line-height: normal"><span lang="EN-GB">-</span><span lang="EN-GB">two plasters</span></p><p class="MsoNormal" style="margin-left:28.35pt;text-indent:-28.35pt;line-height: normal"><span lang="EN-GB">-</span><span lang="EN-GB">one gauze pad.</span></p><p class="MsoNormal" style="line-height:normal"></p><p class="MsoNormal" style="line-height:normal"><span lang="EN-GB">Pack size of 1.</span></p><p class="MsoNormal" style="line-height:normal"></p>
			</div>
		</text>
		
    	    
		
</section>
			    
    	    

			    
		               
<section>
			<title value="6.6     Special precautions for disposal and other handling"/>
				<code>
					<coding>
						<system value="http://spor.ema.europa.eu/v1/example-sections"/>
						<code value="${document[n].section[n].subsection[n].typeCode}"/>
						<display value="${document[n].section[n].subsection[n].typeDisplay}"/>
					</coding>
				</code>
		<text>
			<status value="additional"/>
			<div xmlns="http://www.w3.org/1999/xhtml">
		    <p class="MsoNormal" style="line-height:normal;page-break-after:avoid;text-autospace: none"></p><p class="MsoNormal" style="line-height:normal"><span lang="EN-GB">The vial of lyophilised product powder for injection must be reconstituted with the supplied solvent (water for injections) from the pre-filled syringe using the sterile vial adapter for reconstitution.</span></p><p class="MsoNormal" style="line-height:normal"><span lang="EN-GB">The vial should be gently swirled until all of the powder is dissolved. </span></p><p class="MsoNormal" style="line-height:normal"></p><p class="MsoNormal" style="line-height:normal;text-autospace:none"><span lang="EN-GB">Reconstituted medicinal product should be inspected visually for particulate matter and discoloration prior to administration. The solution should be clear to slightly opalescent and colourless. Do not use solutions that are cloudy or have deposits.</span></p><p class="MsoNormal" style="line-height:normal"></p><p class="MsoNormal" style="line-height:normal"><u><span lang="EN-GB">Additional information on reconstitution and administration:</span></u></p><p class="MsoNormal" style="line-height:normal"></p><p class="MsoNormal" style="line-height:normal"><span lang="EN-GB">ELOCTA is administered by intravenous (IV) injection after dissolving the powder for injection with the solvent supplied in the pre-filled syringe. ELOCTA pack contains:</span></p><p class="MsoNormal" style="line-height:normal"></p><p class="MsoNormal" style="line-height:normal;page-break-after:avoid"></p><p class="MsoNormal" style="line-height:normal;page-break-after:avoid"> <table align="left" cellpadding="0" cellspacing="0"> <tr> <td height="17" width="18"></td> <td width="328"></td> <td width="45"></td> <td width="233"></td> </tr> <tr> <td height="3"></td> <td align="left" rowspan="2" valign="top"><img height="155" src="#image0" width="328"/></td> </tr> <tr> <td height="152"></td> <td></td> <td align="left" rowspan="2" valign="top"><img alt="A) 1 Powder vial B) 3 mL solvent in pre-filled syringe C) 1 Plunger rod  D) 1 Vial adapter E) 1 Infusion set F) 2 Alcohol swabs G) 2 Plasters  H) 1 Gauze pad  " height="157" src="#image1" width="233"/></td> </tr> <tr> <td height="5"></td> </tr> </table> </p><p class="MsoNormal" style="line-height:normal;page-break-after:avoid"></p><p class="MsoNormal" style="line-height:normal;page-break-after:avoid"></p><p class="MsoNormal" style="line-height:normal;page-break-after:avoid"></p><p class="MsoNormal" style="margin-right:-.1pt;line-height:normal;page-break-after: avoid"></p><p class="MsoNormal" style="margin-right:-.1pt;line-height:normal;page-break-after: avoid"></p><p class="MsoNormal" style="margin-right:-.1pt;line-height:normal"></p><p class="MsoNormal" style="margin-right:-.1pt;line-height:normal"></p><p class="MsoNormal" style="margin-right:-.1pt;line-height:normal"></p><p class="MsoNormal" style="margin-right:-.1pt;line-height:normal"></p><p class="MsoNormal" style="margin-right:-.1pt;line-height:normal"></p><br clear="ALL"/><p class="MsoNormal" style="line-height:normal"><span lang="EN-GB">ELOCTA should not be mixed with other solutions for injection or infusion.</span></p><p class="MsoNormal" style="margin-right:-.1pt;line-height:normal"></p><p class="MsoNormal" style="margin-right:-.1pt;line-height:normal"><span lang="EN-GB">Wash your hands before opening the pack.</span></p><p class="MsoNormal" style="margin-right:-.1pt;line-height:normal"></p><p class="MsoNormal" style="line-height:normal;page-break-after:avoid"><b><span lang="EN-GB">Preparation:</span></b></p><p class="MsoNormal" style="line-height:normal;page-break-after:avoid"></p><p class="MsoNormal" style="line-height:12.0pt"><span lang="EN-GB"><img border="0" height="834" id="Picture 36" src="#image2" width="624"/></span></p><p class="MsoNormal" style="line-height:normal"></p><p class="MsoNormal" style="line-height:normal;page-break-after:avoid"><b><span lang="EN-GB">Administration (Intravenous injection):</span></b></p><p class="MsoListParagraphCxSpFirst" style="margin-top:0in;margin-right:0in; margin-bottom:10.0pt;margin-left:0in;page-break-after:avoid"></p><p class="MsoListParagraphCxSpMiddle" style="margin-top:0in;margin-right:0in; margin-bottom:10.0pt;margin-left:0in;page-break-after:avoid"><span lang="EN-GB" style="font-size:11.0pt">ELOCTA should be administered using the infusion set (E) provided in this pack.</span></p><p class="MsoListParagraphCxSpLast" style="margin-top:0in;margin-right:0in; margin-bottom:10.0pt;margin-left:0in;page-break-after:avoid"></p><p class="MsoNormal" style="line-height:12.0pt"><span lang="EN-GB"><img border="0" height="674" id="Picture 35" src="#image3" width="624"/></span></p><p class="MsoNormal" style="line-height:normal"><span lang="EN-GB">Any unused medicinal product or waste material should be disposed of in accordance with local requirements. </span></p><p class="MsoNormal" style="line-height:normal"></p><p class="MsoNormal" style="line-height:normal"></p>
			</div>
		</text>
		
    	    
		
</section>
			    
    	    
		
</section>
			    
    	    
				
			    
						
		               
<section>
			<title value="7.       MARKETING AUTHORISATION HOLDER"/>
				<code>
					<coding>
						<system value="http://spor.ema.europa.eu/v1/example-sections"/>
						<code value="${document[n].section[n].subsection[n].typeCode}"/>
						<display value="${document[n].section[n].subsection[n].typeDisplay}"/>
					</coding>
				</code>
		<text>
			<status value="additional"/>
			<div xmlns="http://www.w3.org/1999/xhtml">
		    <p class="MsoNormal" style="line-height:normal;page-break-after:avoid"></p><p class="MsoNormal" style="line-height:normal;page-break-after:avoid"><span lang="EN-GB">Swedish Orphan Biovitrum AB (publ)</span></p><p class="MsoNormal" style="line-height:normal;page-break-after:avoid"><span lang="EN-GB">SE-112 76 Stockholm</span></p><p class="MsoNormal" style="line-height:normal"><span lang="EN-GB">Sweden</span></p><p class="MsoNormal" style="line-height:normal"></p><p class="MsoNormal" style="line-height:normal"></p>
			</div>
		</text>
		
    	    
		
</section>
			    
    	    
				
			    
						
		               
<section>
			<title value="8.       MARKETING AUTHORISATION NUMBER(S) "/>
				<code>
					<coding>
						<system value="http://spor.ema.europa.eu/v1/example-sections"/>
						<code value="${document[n].section[n].subsection[n].typeCode}"/>
						<display value="${document[n].section[n].subsection[n].typeDisplay}"/>
					</coding>
				</code>
		<text>
			<status value="additional"/>
			<div xmlns="http://www.w3.org/1999/xhtml">
		    <p class="MsoNormal" style="line-height:normal;page-break-after:avoid"></p><p class="MsoNormal" style="line-height:normal"><span lang="PT">EU/1/15/1046/001</span></p><p class="MsoNormal" style="line-height:normal"><span lang="PT">EU/1/15/1046/002</span></p><p class="MsoNormal" style="line-height:normal"><span lang="PT">EU/1/15/1046/003</span></p><p class="MsoNormal" style="line-height:normal"><span lang="PT">EU/1/15/1046/004</span></p><p class="MsoNormal" style="line-height:normal"><span lang="PT">EU/1/15/1046/005</span></p><p class="MsoNormal" style="line-height:normal">EU/1/15/1046/006</p><p class="MsoNormal" style="line-height:normal">EU/1/15/1046/007</p><p class="MsoNormal" style="line-height:normal">EU/1/15/1046/008</p><p class="MsoNormal" style="line-height:normal"> </p><p class="MsoNormal" style="line-height:normal"> </p>
			</div>
		</text>
		
    	    
		
</section>
			    
    	    
				
			    
						
		               
<section>
			<title value="9.       DATE OF FIRST AUTHORISATION/RENEWAL OF THE AUTHORISATION"/>
				<code>
					<coding>
						<system value="http://spor.ema.europa.eu/v1/example-sections"/>
						<code value="${document[n].section[n].subsection[n].typeCode}"/>
						<display value="${document[n].section[n].subsection[n].typeDisplay}"/>
					</coding>
				</code>
		<text>
			<status value="additional"/>
			<div xmlns="http://www.w3.org/1999/xhtml">
		    <p class="MsoNormal" style="line-height:normal;page-break-after:avoid"></p><p class="MsoNormal" style="line-height:normal"><span lang="EN-GB">Date of first authorisation: </span><span lang="EN-GB">19 November 2015</span></p><p class="MsoNormal" style="line-height:normal"><span lang="EN-GB">Date of latest renewal: 19 August 2020</span></p><p class="MsoNormal" style="line-height:normal"></p><p class="MsoNormal" style="line-height:normal"></p>
			</div>
		</text>
		
    	    
		
</section>
			    
    	    
				
			    
						
		               
<section>
			<title value="10.     DATE OF REVISION OF THE TEXT"/>
				<code>
					<coding>
						<system value="http://spor.ema.europa.eu/v1/example-sections"/>
						<code value="${document[n].section[n].subsection[n].typeCode}"/>
						<display value="${document[n].section[n].subsection[n].typeDisplay}"/>
					</coding>
				</code>
		<text>
			<status value="additional"/>
			<div xmlns="http://www.w3.org/1999/xhtml">
		    <p class="MsoNormal" style="line-height:normal;page-break-after:avoid"></p><p class="MsoNormal" style="line-height:normal"></p><p class="MsoNormal" style="line-height:normal"> </p><p class="MsoNormal" style="line-height:normal"><span lang="EN-GB">Detailed information on this medicinal product is available on the website of the European Medicines Agency <a href="http://www.ema.europa.eu/">http://www.ema.europa.eu</a></span><span lang="EN-GB">.</span></p><p class="MsoNormal" style="line-height:normal"></p><span lang="EN-GB" style='font-size:11.0pt;font-family:"Times New Roman",serif'><br clear="all" style="page-break-before:always"/> </span>
			</div>
		</text>
		
    	    
		
</section>
			    
    	    
		
	
</section>
							<!-- sections can repeat as necessary -->
						</Composition>
					</resource>
				</entry>
				
			</Bundle>
		</resource>
	</entry>
</Bundle>