<?xml version="1.0" encoding="UTF-8"?>
<!-- This is a template for a FHIR resource, and needs items (marked with "${}") replacing to make a real instance -->
<!-- The resulting instance is a Bundle of Bundles, each of which is a document (having a Composition, and supporting resources) -->
<!-- 2020-02-22 -->
<!-- This is for FHIR version R5 Preview 2 (May 2020) -->
<Bundle xmlns="http://hl7.org/fhir">
	<type value="collection"/>
	<!-- Repeat at this level per document -->
	<entry>
		<fullUrl value="urn:uuid:e70ed86c-e92a-4dc1-ab29-f56758656a93"/>
		<!-- Top level of each document is a also FHIR Bundle, of type "document"
		 see http://hl7.org/fhir/documents.html, http://hl7.org/fhir/bundle.html
	 	 All the other resources for this document are within this. -->
		<resource>
            <Bundle>
            	<!-- When PUTing, some servers mandate an id here to match the existing id -->
            	<id value="70c4c12a-bbc5-4008-a3b4-dfc01d978960"/>
				<!-- document bundles must have an identifier (bdl-9) -->
				<identifier>
					<!-- possibly different identifier types may be needed here -->
					<system value="http://ema.europa.eu/fhir/identifier/documentid"/>
					<value value="${instance.bundle[n].Identifier}"/>
				</identifier>
				<!-- fixed code -->
				<type value="document" /> 
            	<!-- document bundles must have a date (bdl-10) -->
            	<timestamp value="2021-05-19T18:56:04Z"/>
				<!-- a repeating set of entry elements, each with a FHIR resource inside -->
				<entry>
					<!-- fullUrl is mandatory for each entry in document Bundle. It is a random uuid. http://build.fhir.org/bundle.html#bundle-unique -->
					<fullUrl value="urn:uuid:25afa732-ab1e-4b52-9fd0-0158116dcde9"/>
					<resource>
						<!-- the first resource must be Composition (bdl-11) -->
						<!-- This is the overall document structure. -->
						<!-- see definition http://hl7.org/fhir/composition.html, and similar for other resources -->
                        <Composition>
                        	<!-- images if requied within html text of this document -->
							
							<contained>
                                <Binary>
                                	<id value="image0"/>
                                	<!-- example format -->
                                	<contentType value="image/png"/>
									<!-- data is base 64 encoded, actual bytes of the image png file -->
                                	<data value=""/>
								</Binary>
							</contained>
							<!-- this exension is necessary per image -->
                <extension url="http://ema.europa.eu/fhir/extension/dummyValidationReference">
                        		<valueReference>
                        			<reference value="#image0"/>
                        		</valueReference>
               </extension>
              
              
              <contained>
                          <Binary>
                            <id value="stylesheet0"/>
                            <!-- example format -->
                            <contentType value="stylesheet/css"/>
                            <!-- data is base 64 encoded, actual bytes of the image png file -->
                            <data value=""/>
                          </Binary>
                        </contained>
                        <!-- this exension is necessary per image -->
                        <extension url="http://ema.europa.eu/fhir/extension/dummyValidationReference">
                          <valueReference>
                            <reference value="#stylesheet0"/>
                          </valueReference>
                        </extension>
              
              <status value="final"/>
							<!-- document type -->
							<type>
								<coding>
									<system value="http://spor.ema.europa.eu/v1/lists/100000155531"/>
									<code value="${document[n].documentTypeCode}"/>
									<display value="${document[n].documentTypeDisplay}"/>
								</coding>
							</type>
							<subject>
								<!-- links to the List resource in this bundle - local url format -->
								<reference value="[]"/> <!-- local url format -->
								<!--reference value="${instance.bundle[n].listUuid}"/--> <!-- uuid url format. Possible alternate format may be neeed -->
							</subject>
                        	<!-- mandatory date of the document -->
                        	<date value="2021-02-01"/>
							<author>
								<identifier>
									<system value="http://spor.ema.europa.eu/v1/locations" />
									<value value="" />
								</identifier>
							</author>
                        	<title value="${document[n].title}"/>
							<relatesTo>
								<code value="appends"/>
								<targetReference>
									<!-- reference to another Composition -->
									<reference value="${document[n].relatesTo}"/>
								</targetReference>
							</relatesTo>
							<!-- main sections of the document, to follow the QRD template -->
	               			
<section>
	
		
			<title value="B. PACKAGE LEAFLET"/>
				<code>
					<coding>
						<system value="http://spor.ema.europa.eu/v1/example-sections"/>
						<code value="${document[n].section[n].subsection[n].typeCode}"/>
						<display value="${document[n].section[n].subsection[n].typeDisplay}"/>
					</coding>
				</code>
		<text>
			<status value="additional"/>
			<div xmlns="http://www.w3.org/1999/xhtml">
		    <span style='font-size:11.0pt;font-family:"Times New Roman",serif'><br clear="all" style="page-break-before:always"/> </span><br clear="all" style="page-break-before:always"/><p class="MsoNormal" style="margin-bottom:0in;line-height:normal"></p><p align="center" class="MsoNormal" style="margin-bottom:0in;text-align:center; line-height:normal"><b><span style='font-family:"Times New Roman",serif'>Package leaflet: Information for the patient or carer</span></b></p><p align="center" class="MsoNormal" style="margin-bottom:0in;text-align:center; line-height:normal"><b><span style='font-family:"Times New Roman",serif'>Zynteglo 1.2‑20 × 10<sup>6 </sup>cells/mL dispersion for infusion</span></b></p><p align="center" class="MsoNormal" style="margin-bottom:0in;text-align:center; line-height:normal"><span style='font-family:"Times New Roman",serif'>betibeglogene autotemcel </span></p><p class="MsoNormal" style="margin-bottom:0in;line-height:normal"></p><p class="MsoNormal" style="margin-bottom:0in;line-height:normal"><span lang="EN-GB" style='font-family:"Times New Roman",serif'><img alt="BT_1000x858px" border="0" height="18" id="Picture 1882439266" src="#image0" width="21"/></span><span style='font-family:"Times New Roman",serif'>This medicine is subject to additional monitoring. This will allow quick identification of new safety information. You can help by reporting any side effects you may get. See the end of section 4 for how to report side effects.</span></p><p class="MsoNormal" style="margin-bottom:0in;line-height:normal"></p><p class="MsoNormal" style="margin-bottom:0in;line-height:normal"><b><span style='font-family:"Times New Roman",serif'>Read all of this leaflet carefully before you are given this medicine because it contains important information for you.</span></b></p><p class="MsoNormal" style="margin-bottom:0in;line-height:normal"></p><p class="MsoNormal" style="margin-bottom:0in;line-height:normal;text-autospace: none"><span style='font-family:"Times New Roman",serif'>You will be given a <b>Patient Alert Card</b> which contains important safety information that you need to know about your treatment with Zynteglo. You should carry the Patient Alert Card with you at all times and show it to your doctor or nurse when you see them or if you are admitted to the hospital.</span></p><p class="MsoNormal" style="margin-top:0in;margin-right:-.1pt;margin-bottom:0in; margin-left:.25in;text-indent:-.25in;line-height:normal"><span style='font-family:"Times New Roman",serif'>-</span><span style='font-family:"Times New Roman",serif'>Keep this leaflet. You may need to read it again. </span></p><p class="MsoNormal" style="margin-top:0in;margin-right:-.1pt;margin-bottom:0in; margin-left:.25in;text-indent:-.25in;line-height:normal"><span style='font-family:"Times New Roman",serif'>-</span><span style='font-family:"Times New Roman",serif'>If you have any further questions, ask your doctor or nurse.</span></p><p class="MsoNormal" style="margin-top:0in;margin-right:0in;margin-bottom:0in; margin-left:.25in;text-indent:-.25in;line-height:normal"><span style='font-family:"Times New Roman",serif'>-</span><span style='font-family:"Times New Roman",serif'>If you get any side effects, talk to your doctor or nurse.This includes any possible side effects not listed in this leaflet. See section 4.</span></p><p class="MsoNormal" style="margin-top:0in;margin-right:0in;margin-bottom:0in; margin-left:.25in;text-indent:-.25in;line-height:normal"><span style='font-family:"Times New Roman",serif'>-</span><span style='font-family:"Times New Roman",serif'>Read the Patient Alert Card carefully and follow the instructions on it. </span></p><p class="MsoNormal" style="margin-top:0in;margin-right:0in;margin-bottom:0in; margin-left:.25in;line-height:normal"></p>
			</div>
		</text>
		
		
    	    
				
			    
						
		               
<section>
			<title value="What is in this leaflet"/>
				<code>
					<coding>
						<system value="http://spor.ema.europa.eu/v1/example-sections"/>
						<code value="${document[n].section[n].subsection[n].typeCode}"/>
						<display value="${document[n].section[n].subsection[n].typeDisplay}"/>
					</coding>
				</code>
		<text>
			<status value="additional"/>
			<div xmlns="http://www.w3.org/1999/xhtml">
		    <p class="MsoNormal" style="margin-top:0in;margin-right:-1.45pt;margin-bottom: 0in;margin-left:0in;line-height:normal"><span style='font-family:"Times New Roman",serif'>1.     What Zynteglo is and what it is used for </span></p><p class="MsoNormal" style="margin-top:0in;margin-right:-1.45pt;margin-bottom: 0in;margin-left:0in;line-height:normal"><span style='font-family:"Times New Roman",serif'>2.     What you need to know before you are given Zynteglo</span></p><p class="MsoNormal" style="margin-top:0in;margin-right:-1.45pt;margin-bottom: 0in;margin-left:0in;line-height:normal"><span style='font-family:"Times New Roman",serif'>3.     How Zynteglo is given</span></p><p class="MsoNormal" style="margin-top:0in;margin-right:-1.45pt;margin-bottom: 0in;margin-left:0in;line-height:normal"><span style='font-family:"Times New Roman",serif'>4.     Possible side effects </span></p><p class="MsoNormal" style="margin-top:0in;margin-right:-1.45pt;margin-bottom: 0in;margin-left:0in;line-height:normal"><span style='font-family:"Times New Roman",serif'>5.     How to store Zynteglo </span></p><p class="MsoNormal" style="margin-top:0in;margin-right:-1.45pt;margin-bottom: 0in;margin-left:0in;line-height:normal"><span style='font-family:"Times New Roman",serif'>6.     Contents of the pack and other information</span></p><p class="MsoNormal" style="margin-top:0in;margin-right:-1.45pt;margin-bottom: 0in;margin-left:0in;line-height:normal"></p><p class="MsoNormal" style="margin-top:0in;margin-right:-1.45pt;margin-bottom: 0in;margin-left:0in;line-height:normal"></p>
			</div>
		</text>
		
    	    
		
</section>
			    
    	    
				
			    
						
		               
<section>
			<title value="1.       What Zynteglo is and what it is used for"/>
				<code>
					<coding>
						<system value="http://spor.ema.europa.eu/v1/example-sections"/>
						<code value="${document[n].section[n].subsection[n].typeCode}"/>
						<display value="${document[n].section[n].subsection[n].typeDisplay}"/>
					</coding>
				</code>
		<text>
			<status value="additional"/>
			<div xmlns="http://www.w3.org/1999/xhtml">
		    <p class="MsoNormal" style="margin-top:0in;margin-right:-.1pt;margin-bottom:0in; margin-left:0in;line-height:normal"></p><p class="MsoNormal" style="margin-top:0in;margin-right:-.1pt;margin-bottom:0in; margin-left:0in;line-height:normal"><span style='font-family:"Times New Roman",serif'>Zynteglo</span><span style='font-family:"Times New Roman",serif'> is used to treat a serious genetic disease called transfusion‑dependent beta‑thalassaemia (TDT), which includes the disease commonly known as beta‑thalassaemia major, in people 12 years and older. People with this condition cannot make enough haemoglobin, a protein in the blood that carries oxygen. More specifically, people with TDT do not make enough of a part of the haemoglobin called beta-globin, due to a gene defect. Because of this defect, people with TDT are anaemic and need frequent blood transfusions to survive.</span></p><p class="MsoNormal" style="margin-top:0in;margin-right:-.1pt;margin-bottom:0in; margin-left:0in;line-height:normal"></p><p class="MsoNormal" style="margin-top:0in;margin-right:-.1pt;margin-bottom:0in; margin-left:0in;line-height:normal"><span style='font-family:"Times New Roman",serif'>Zynteglo is a type of medicine called gene therapy. It is made specifically for each patient, using the patient’s own (also called autologous) blood stem cells. Zynteglo works by adding functional copies of the beta-globin gene into these cells, so that the patient can make enough beta-globin to increase total haemoglobin, improve anaemia, and carry more oxygen around their body. This reduces or eliminates the need for blood transfusions.</span></p><p class="MsoNormal" style="margin-top:0in;margin-right:-.1pt;margin-bottom:0in; margin-left:0in;line-height:normal"></p><p class="MsoNormal" style="margin-top:0in;margin-right:-.1pt;margin-bottom:0in; margin-left:0in;line-height:normal"></p>
			</div>
		</text>
		
    	    
		
</section>
			    
    	    
				
			    
						
		               
<section>
			<title value="2.       What you need to know before you are given Zynteglo"/>
				<code>
					<coding>
						<system value="http://spor.ema.europa.eu/v1/example-sections"/>
						<code value="${document[n].section[n].subsection[n].typeCode}"/>
						<display value="${document[n].section[n].subsection[n].typeDisplay}"/>
					</coding>
				</code>
		<text>
			<status value="additional"/>
			<div xmlns="http://www.w3.org/1999/xhtml">
		    <p class="MsoNormal" style="margin-bottom:0in;line-height:normal"></p><p class="MsoNormal" style="margin-bottom:0in;line-height:normal"><b><span style='font-family:"Times New Roman",serif'>You must not be given Zynteglo if you</span></b><span style='font-family:"Times New Roman",serif'>:</span></p><p class="MsoNormal" style="margin-top:0in;margin-right:0in;margin-bottom:0in; margin-left:.25in;text-indent:-.25in;line-height:normal"><span style='font-family:"Times New Roman",serif'>-</span><span style='font-family:"Times New Roman",serif'>are allergic to any of the ingredients of this medicine (listed in section 6)</span></p><p class="MsoNormal" style="margin-top:0in;margin-right:0in;margin-bottom:0in; margin-left:.25in;text-indent:-.25in;line-height:normal"><span style='font-family:"Times New Roman",serif'>-</span><span style='font-family:"Times New Roman",serif'>are pregnant or breast-feeding</span></p><p class="MsoNormal" style="margin-top:0in;margin-right:0in;margin-bottom:0in; margin-left:.25in;text-indent:-.25in;line-height:normal"><a name="_Hlk817587"><span style='font-family:"Times New Roman",serif'>-</span><span style='font-family:"Times New Roman",serif'>have previously received gene therapy of your blood stem cells</span></a></p><p class="MsoNormal" style="margin-top:0in;margin-right:0in;margin-bottom:0in; margin-left:.25in;text-indent:-.25in;line-height:normal"><span style='font-family:"Times New Roman",serif'>-</span><span style='font-family:"Times New Roman",serif'>are allergic to any of the ingredients in the medicines you will be given for mobilisation and chemotherapy (see section 3).</span></p><p class="MsoNormal" style="margin-bottom:0in;line-height:normal"></p>
			</div>
		</text>
		
    	    

			    
		               
<section>
			<title value="Warnings and precautions "/>
				<code>
					<coding>
						<system value="http://spor.ema.europa.eu/v1/example-sections"/>
						<code value="${document[n].section[n].subsection[n].typeCode}"/>
						<display value="${document[n].section[n].subsection[n].typeDisplay}"/>
					</coding>
				</code>
		<text>
			<status value="additional"/>
			<div xmlns="http://www.w3.org/1999/xhtml">
		    <p class="MsoNormal" style="margin-bottom:0in;line-height:normal"><span style='font-family:"Times New Roman",serif'>Talk to your doctor before you are given Zynteglo.</span></p><p class="MsoNormal" style="margin-bottom:0in;line-height:normal"></p><p class="C-BodyText" style="margin:0in;line-height:normal"><span style="font-size:11.0pt">Before treatment with Zynteglo, you will be given medicines know as mobilisation medicine and chemotherapy medicine (see sections 3 and 4 for more information on these medicines, including possible side effects).</span></p><p class="C-BodyText" style="margin:0in;line-height:normal"></p><p class="MsoNormal" style="margin-bottom:0in;line-height:normal"><span style='font-family:"Times New Roman",serif'>Before treatment with Zynteglo, your doctor will perform tests to make sure your heart and liver are functioning properly so you can be treated safely with Zynteglo. </span></p><p class="MsoNormal" style="margin-bottom:0in;line-height:normal"></p><p class="MsoNormal" style="margin-bottom:0in;line-height:normal"><span style='font-family:"Times New Roman",serif'>Zynteglo</span><span style='font-family:"Times New Roman",serif'> is made specifically for you, using your own blood stem cells. </span></p><p class="MsoNormal" style="margin-bottom:0in;line-height:normal"></p><p class="MsoNormal" style="margin-bottom:0in;line-height:normal"><span style='font-family:"Times New Roman",serif'>After you have been treated with Zynteglo, you will not be able to donate blood, organs, or tissues in the future. This is because Zynteglo is a gene therapy medicine. </span></p><p class="MsoNormal" style="margin-bottom:0in;line-height:normal"></p><p class="MsoNormal" style="margin-bottom:0in;line-height:normal"><span style='font-family:"Times New Roman",serif'>Adding a new gene into the DNA of your blood stem cells could theoretically cause leukaemia or lymphoma, although no patients have developed leukaemia or lymphoma in clinical trials with Zynteglo. After treatment with Zynteglo, you will be asked to enrol in a registry for at least 15 years in order to better understand the long-term effects of Zynteglo. During the long-term follow-up, your doctor will monitor you for any signs of leukaemia or lymphoma. </span></p><p class="MsoNormal" style="margin-bottom:0in;line-height:normal"></p><p class="MsoNormal" style="margin-bottom:0in;line-height:normal"><span style='font-family:"Times New Roman",serif'>Zynteglo is prepared using parts of the human immunodeficiency virus (HIV), which have been altered so that they cannot cause HIV infection. The modified virus is used to insert a functional beta-globin gene into your blood stem cells. Although this medicine will not give you HIV infection, having Zynteglo in your blood may cause a false positive HIV test result with some commercial tests that recognise a piece of HIV used to make Zynteglo. If you test positive for HIV following treatment, please contact your doctor or nurse. </span></p><p class="MsoNormal" style="margin-bottom:0in;line-height:normal"></p><p class="MsoNormal" style="margin-bottom:0in;line-height:normal"><span style='font-family:"Times New Roman",serif'>Before receiving Zynteglo you will be given chemotherapy in order to remove your existing bone marrow. If Zynteglo cannot be administered after chemotherapy or if the modified stem cells do not take hold (engraft) in your body, the doctor may give you an infusion of your own original blood stem cells that were collected and stored before the treatment started (see also section 3, How Zynteglo is given)<i>. </i></span></p><p class="MsoNormal" style="margin-bottom:0in;line-height:normal"></p><p class="MsoNormal" style="margin-bottom:0in;line-height:normal"><span style='font-family:"Times New Roman",serif'>After you receive Zynteglo, you may have a low number of platelets in your blood. This means that your blood may not be able to clot as well as normal and you may be prone to bleeding. You must get medical attention if you: </span></p><p class="MsoListParagraph" style="margin-bottom:0in;text-indent:-.25in; line-height:normal"><span style="font-family:Symbol">·</span><span style='font-family:"Times New Roman",serif'>bump your head or have a head injury</span></p><p class="MsoListParagraph" style="margin-bottom:0in;text-indent:-.25in; line-height:normal"><span style="font-family:Symbol">·</span><span style='font-family:"Times New Roman",serif'>have symptoms that could be from internal bleeding, such as unusual stomach or back pain, or severe headache</span></p><p class="MsoListParagraph" style="margin-bottom:0in;text-indent:-.25in; line-height:normal"><span style="font-family:Symbol">·</span><span style='font-family:"Times New Roman",serif'>have abnormal bruising or bleeding (such as bruising without injury, blood in your urine, stool, vomit, or cough up blood).</span></p><p class="MsoNormal" style="margin-bottom:0in;line-height:normal"><span style='font-family:"Times New Roman",serif'>Your doctor will tell you when your platelet count has recovered to normal levels.</span></p><p class="MsoNormal" style="margin-bottom:0in;line-height:normal"></p>
			</div>
		</text>
		
    	    
		
</section>
			    
    	    

			    
		               
<section>
			<title value="Other medicines and Zynteglo "/>
				<code>
					<coding>
						<system value="http://spor.ema.europa.eu/v1/example-sections"/>
						<code value="${document[n].section[n].subsection[n].typeCode}"/>
						<display value="${document[n].section[n].subsection[n].typeDisplay}"/>
					</coding>
				</code>
		<text>
			<status value="additional"/>
			<div xmlns="http://www.w3.org/1999/xhtml">
		    <p class="MsoNormal" style="margin-bottom:0in;line-height:normal"><span style='font-family:"Times New Roman",serif'>Tell your doctor if you are taking, have recently taken or might take any other medicines.</span></p><p class="MsoNormal" style="margin-bottom:0in;line-height:normal"></p><p class="MsoNormal" style="margin-bottom:0in;line-height:normal"><span style='font-family:"Times New Roman",serif'>You should not take hydroxyurea (a medicine for blood disorders) or any medicines for HIV infection from at least one month before you undergo mobilisation until at least 7 days after Zynteglo infusion (see also section 3, How Zynteglo is given).</span></p><p class="MsoNormal" style="margin-bottom:0in;line-height:normal"></p><p class="MsoNormal" style="margin-bottom:0in;line-height:normal"><span style='font-family:"Times New Roman",serif'>You should stop taking medicines to remove iron from your body (so-called chelating agents: deferoxamine, deferiprone and/or deferasirox) 7 days before you start the chemotherapy before the infusion of Zynteglo (see section 3, How Zynteglo is given). Your doctor will advise you if and when you should start taking these medicines after Zynteglo infusion. </span></p><p class="MsoNormal" style="margin-bottom:0in;line-height:normal"></p><p class="MsoNormal" style="margin-bottom:0in;line-height:normal"><span style='font-family:"Times New Roman",serif'>Talk to your doctor if you need to have any vaccinations. </span></p><p class="MsoNormal" style="margin-bottom:0in;line-height:normal"></p>
			</div>
		</text>
		
    	    
		
</section>
			    
    	    

			    
		               
<section>
			<title value="Pregnancy, breast-feeding and fertility"/>
				<code>
					<coding>
						<system value="http://spor.ema.europa.eu/v1/example-sections"/>
						<code value="${document[n].section[n].subsection[n].typeCode}"/>
						<display value="${document[n].section[n].subsection[n].typeDisplay}"/>
					</coding>
				</code>
		<text>
			<status value="additional"/>
			<div xmlns="http://www.w3.org/1999/xhtml">
		    <p class="MsoNormal" style="margin-bottom:0in;line-height:normal"><span style='font-family:"Times New Roman",serif'>If you are pregnant or breast-feeding, think you may be pregnant or are planning to have a baby, tell your doctor before you are given this medicine.</span></p><p class="MsoNormal" style="margin-bottom:0in;line-height:normal"></p><p class="MsoNormal" style="margin-bottom:0in;line-height:normal"><span style='font-family:"Times New Roman",serif'>If you are a woman, you will be given a pregnancy test before starting mobilisation, before you are given chemotherapy, and before Zynteglo treatment in order to confirm that you are not pregnant.</span></p><p class="MsoNormal" style="margin-bottom:0in;line-height:normal"></p><p class="MsoNormal" style="margin-bottom:0in;line-height:normal"><span style='font-family:"Times New Roman",serif'>Women who could become pregnant and men capable of fathering a child must start using a reliable method of contraception from before their blood stem cells are collected and continue until at least 6 months after receiving Zynteglo.  Reliable methods of contraception include intra-uterine device or a combination of oral contraceptive (also know as the pill) and condoms.</span></p><p class="MsoNormal" style="margin-bottom:0in;line-height:normal"></p><p class="MsoNormal" style="margin-bottom:0in;line-height:normal"><span style='font-family:"Times New Roman",serif'>The added gene from Zynteglo will not be passed on to your children. Your children are still at risk of inheriting your original beta‑globin gene.</span></p><p class="MsoNormal" style="margin-bottom:0in;line-height:normal"></p><p class="MsoNormal" style="margin-bottom:0in;line-height:normal"><span style='font-family:"Times New Roman",serif'>You should not be given Zynteglo if you are breast-feeding. It is not known whether the ingredients of Zynteglo can pass into breast milk.</span></p><p class="MsoNormal" style="margin-bottom:0in;line-height:normal"></p><p class="MsoNormal" style="margin-bottom:0in;line-height:normal"><span style='font-family:"Times New Roman",serif'>It may no longer be possible for you to become pregnant or father a child after receiving chemotherapy medicine. If you are concerned about having children, you should discuss this with your doctor before treatment. Options may include providing reproductive material for storage in a tissue bank to use at a later time. For men, this may be sperm or testicular tissue. For women, this may be eggs (oocytes) or ovarian tissue.</span></p><p class="MsoNormal" style="margin-bottom:0in;line-height:normal"></p>
			</div>
		</text>
		
    	    
		
</section>
			    
    	    

			    
		               
<section>
			<title value="Driving and using machines"/>
				<code>
					<coding>
						<system value="http://spor.ema.europa.eu/v1/example-sections"/>
						<code value="${document[n].section[n].subsection[n].typeCode}"/>
						<display value="${document[n].section[n].subsection[n].typeDisplay}"/>
					</coding>
				</code>
		<text>
			<status value="additional"/>
			<div xmlns="http://www.w3.org/1999/xhtml">
		    <p class="MsoNormal" style="margin-top:0in;margin-right:-.1pt;margin-bottom:0in; margin-left:0in;line-height:normal"><a name="_Hlk32575891"><span style='font-family:"Times New Roman",serif'>Zynteglo has no influence on the ability to drive or use machines. However, the mobilisation and chemotherapy medicines may cause dizziness and fatigue. Avoid driving or using machines if you feel dizzy, tired or unwell.</span></a></p><p class="MsoNormal" style="margin-top:0in;margin-right:-.1pt;margin-bottom:0in; margin-left:0in;line-height:normal"></p><p class="MsoNormal" style="margin-top:0in;margin-right:-.1pt;margin-bottom:0in; margin-left:0in;line-height:normal"><b><span style='font-family:"Times New Roman",serif'>Sodium content</span></b></p><p class="MsoNormal" style="margin-top:0in;margin-right:-.1pt;margin-bottom:0in; margin-left:0in;line-height:normal"><span style='font-family:"Times New Roman",serif'>This medicine contains 391‑1564 mg sodium (main component of cooking/table salt) in each dose. This is equivalent to <span style="color: black">20‑78% </span>of the recommended maximum daily dietary intake of sodium for an adult.</span></p><p class="MsoNormal" style="margin-top:0in;margin-right:-.1pt;margin-bottom:0in; margin-left:0in;line-height:normal"></p><p class="MsoNormal" style="margin-top:0in;margin-right:-.1pt;margin-bottom:0in; margin-left:0in;line-height:normal"></p><p class="MsoNormal" style="margin-top:0in;margin-right:-.1pt;margin-bottom:0in; margin-left:0in;line-height:normal;page-break-after:avoid"><b><span style='font-family:"Times New Roman",serif'>3.</span></b><b><span style='font-family:"Times New Roman",serif'>       How Zynteglo is given</span></b></p><p class="MsoNormal" style="margin-top:0in;margin-right:-.1pt;margin-bottom:0in; margin-left:0in;line-height:normal"></p><p class="MsoNormal" style="margin-top:0in;margin-right:-.1pt;margin-bottom:0in; margin-left:0in;line-height:normal"><span style='font-family:"Times New Roman",serif'>Zynteglo is given by a drip (infusion) into a vein. It can only be given in a specialised hospital by doctors who are experienced in treating patients with TDT, administering bone marrow transplants, and using gene therapy medicines.</span></p><p class="MsoNormal" style="margin-top:0in;margin-right:-.1pt;margin-bottom:0in; margin-left:0in;line-height:normal"></p><p class="MsoNormal" style="margin-top:0in;margin-right:-.1pt;margin-bottom:0in; margin-left:0in;line-height:normal"><span style='font-family:"Times New Roman",serif'>Zynteglo can only be made if enough of the right kind of blood stem cells can be collected from your blood (CD34<sup>+</sup> blood stem cells). Approximately 2 months before treatment with Zynteglo, you will be given a mobilisation medicine that will move your blood stem cells from your bone marrow into your blood stream. The blood stem cells can then be collected by a machine that separates blood components (apheresis machine). It may take more than 1 day to collect enough blood stem cells to make Zynteglo and to store as replacement cells if Zynteglo cannot be given or does not work.</span></p><p class="MsoNormal" style="margin-top:0in;margin-right:-.1pt;margin-bottom:0in; margin-left:0in;line-height:normal"></p><table border="1" cellpadding="0" cellspacing="0" class="MsoNormalTable" style="border-collapse:collapse;border:none"> <thead> <tr> <td style="width:151.25pt;border:solid windowtext 1.0pt;    padding:0in 5.4pt 0in 5.4pt" valign="top" width="202"> <p class="MsoNormal" style="margin-top:0in;margin-right:-.1pt;margin-bottom:    0in;margin-left:0in;line-height:normal"><b><span style='font-family:"Times New Roman",serif'>Time</span></b></p> </td> <td style="width:151.25pt;border:solid windowtext 1.0pt;    border-left:none;padding:0in 5.4pt 0in 5.4pt" valign="top" width="202"> <p class="MsoNormal" style="margin-top:0in;margin-right:-.1pt;margin-bottom:    0in;margin-left:0in;line-height:normal"><b><span style='font-family:"Times New Roman",serif'>What    happens</span></b></p> </td> <td style="width:151.25pt;border:solid windowtext 1.0pt;    border-left:none;padding:0in 5.4pt 0in 5.4pt" valign="top" width="202"> <p class="MsoNormal" style="margin-top:0in;margin-right:-.1pt;margin-bottom:    0in;margin-left:0in;line-height:normal"><b><span style='font-family:"Times New Roman",serif'>Why</span></b></p> </td> </tr> </thead> <tr> <td style="width:151.25pt;border:solid windowtext 1.0pt;   border-top:none;padding:0in 5.4pt 0in 5.4pt" valign="top" width="202"> <p class="MsoNormal" style="margin-top:0in;margin-right:-.1pt;margin-bottom:   0in;margin-left:0in;line-height:normal"><span style='font-family:"Times New Roman",serif'>Approximately   2 months before Zynteglo infusion</span></p> </td> <td style="width:151.25pt;border-top:none;border-left:   none;border-bottom:solid windowtext 1.0pt;border-right:solid windowtext 1.0pt;   padding:0in 5.4pt 0in 5.4pt" valign="top" width="202"> <p class="MsoNormal" style="margin-top:0in;margin-right:-.1pt;margin-bottom:   0in;margin-left:0in;line-height:normal"><span style='font-family:"Times New Roman",serif'>Mobilisation   medicine is given</span></p> </td> <td style="width:151.25pt;border-top:none;border-left:   none;border-bottom:solid windowtext 1.0pt;border-right:solid windowtext 1.0pt;   padding:0in 5.4pt 0in 5.4pt" valign="top" width="202"> <p class="MsoNormal" style="margin-top:0in;margin-right:-.1pt;margin-bottom:   0in;margin-left:0in;line-height:normal"><span style='font-family:"Times New Roman",serif'>To   move the blood stem cells from your bone marrow into your blood stream.</span></p> </td> </tr> <tr> <td style="width:151.25pt;border:solid windowtext 1.0pt;   border-top:none;padding:0in 5.4pt 0in 5.4pt" valign="top" width="202"> <p class="MsoNormal" style="margin-top:0in;margin-right:-.1pt;margin-bottom:   0in;margin-left:0in;line-height:normal"><span style='font-family:"Times New Roman",serif'>Approximately   2 months before Zynteglo infusion</span></p> </td> <td style="width:151.25pt;border-top:none;border-left:   none;border-bottom:solid windowtext 1.0pt;border-right:solid windowtext 1.0pt;   padding:0in 5.4pt 0in 5.4pt" valign="top" width="202"> <p class="MsoNormal" style="margin-top:0in;margin-right:-.1pt;margin-bottom:   0in;margin-left:0in;line-height:normal"><span style='font-family:"Times New Roman",serif'>Blood   stem cells are collected </span></p> </td> <td style="width:151.25pt;border-top:none;border-left:   none;border-bottom:solid windowtext 1.0pt;border-right:solid windowtext 1.0pt;   padding:0in 5.4pt 0in 5.4pt" valign="top" width="202"> <p class="MsoNormal" style="margin-top:0in;margin-right:-.1pt;margin-bottom:   0in;margin-left:0in;line-height:normal"><span style='font-family:"Times New Roman",serif'>To   make Zynteglo and to serve as replacement cells if needed.</span></p> </td> </tr> <tr> <td style="width:151.25pt;border:solid windowtext 1.0pt;   border-top:none;padding:0in 5.4pt 0in 5.4pt" valign="top" width="202"> <p class="MsoNormal" style="margin-top:0in;margin-right:-.1pt;margin-bottom:   0in;margin-left:0in;line-height:normal"><span style='font-family:"Times New Roman",serif'>At   least 6 days before Zynteglo infusion</span></p> </td> <td style="width:151.25pt;border-top:none;border-left:   none;border-bottom:solid windowtext 1.0pt;border-right:solid windowtext 1.0pt;   padding:0in 5.4pt 0in 5.4pt" valign="top" width="202"> <p class="MsoNormal" style="margin-top:0in;margin-right:-.1pt;margin-bottom:   0in;margin-left:0in;line-height:normal"><span style='font-family:"Times New Roman",serif'>A   chemotherapy medicine is given for 4 days in a hospital</span></p> </td> <td style="width:151.25pt;border-top:none;border-left:   none;border-bottom:solid windowtext 1.0pt;border-right:solid windowtext 1.0pt;   padding:0in 5.4pt 0in 5.4pt" valign="top" width="202"> <p class="MsoNormal" style="margin-top:0in;margin-right:-.1pt;margin-bottom:   0in;margin-left:0in;line-height:normal"><span style='font-family:"Times New Roman",serif'>To   prepare your bone marrow for treatment with Zynteglo.</span></p> </td> </tr> <tr style="page-break-inside:avoid"> <td style="width:151.25pt;border:solid windowtext 1.0pt;   border-top:none;padding:0in 5.4pt 0in 5.4pt" valign="top" width="202"> <p class="MsoNormal" style="margin-top:0in;margin-right:-.1pt;margin-bottom:   0in;margin-left:0in;line-height:normal"><span style='font-family:"Times New Roman",serif'>Start   of Zynteglo treatment</span></p> </td> <td style="width:151.25pt;border-top:none;border-left:   none;border-bottom:solid windowtext 1.0pt;border-right:solid windowtext 1.0pt;   padding:0in 5.4pt 0in 5.4pt" valign="top" width="202"> <p class="MsoNormal" style="margin-top:0in;margin-right:-.1pt;margin-bottom:   0in;margin-left:0in;line-height:normal"><span style='font-family:"Times New Roman",serif'>Zynteglo   is given by a drip (infusion) into a vein. This will take place in a hospital   and will take less than 30 minutes for each infusion bag. The number of bags   will vary by patient.</span></p> </td> <td style="width:151.25pt;border-top:none;border-left:   none;border-bottom:solid windowtext 1.0pt;border-right:solid windowtext 1.0pt;   padding:0in 5.4pt 0in 5.4pt" valign="top" width="202"> <p class="MsoNormal" style="margin-top:0in;margin-right:-.1pt;margin-bottom:   0in;margin-left:0in;line-height:normal"><span style='font-family:"Times New Roman",serif'>To   add blood stem cells containing functional copies of the beta-globin into   your bone marrow.</span></p> </td> </tr> <tr> <td style="width:151.25pt;border:solid windowtext 1.0pt;   border-top:none;padding:0in 5.4pt 0in 5.4pt" valign="top" width="202"> <p class="MsoNormal" style="margin-bottom:0in;line-height:normal;page-break-after:   avoid"><span style='font-family:"Times New Roman",serif'>After Zynteglo   infusion</span></p> </td> <td style="width:151.25pt;border-top:none;border-left:   none;border-bottom:solid windowtext 1.0pt;border-right:solid windowtext 1.0pt;   padding:0in 5.4pt 0in 5.4pt" valign="top" width="202"> <p class="MsoNormal" style="margin-bottom:0in;line-height:normal;page-break-after:   avoid"><span style='font-family:"Times New Roman",serif'>You will remain in   the hospital for approximately 3‑6 weeks</span></p> </td> <td style="width:151.25pt;border-top:none;border-left:   none;border-bottom:solid windowtext 1.0pt;border-right:solid windowtext 1.0pt;   padding:0in 5.4pt 0in 5.4pt" valign="top" width="202"> <p class="MsoNormal" style="margin-bottom:0in;line-height:normal;page-break-after:   avoid"><span style='font-family:"Times New Roman",serif'>To recover and be monitored   until your doctor is satisfied that it is safe for you to leave the hospital.</span></p> </td> </tr> </table><p class="MsoNormal" style="margin-top:0in;margin-right:-.1pt;margin-bottom:0in; margin-left:28.35pt;text-indent:-28.35pt;line-height:normal"><a name="_Hlk512253721"></a></p><p class="MsoNormal" style="margin-top:0in;margin-right:-.1pt;margin-bottom:0in; margin-left:28.35pt;text-indent:-28.35pt;line-height:normal"></p>
			</div>
		</text>
		
    	    
		
</section>
			    
    	    
		
</section>
			    
    	    
				
			    
						
		               
<section>
			<title value="4.       Possible side effects"/>
				<code>
					<coding>
						<system value="http://spor.ema.europa.eu/v1/example-sections"/>
						<code value="${document[n].section[n].subsection[n].typeCode}"/>
						<display value="${document[n].section[n].subsection[n].typeDisplay}"/>
					</coding>
				</code>
		<text>
			<status value="additional"/>
			<div xmlns="http://www.w3.org/1999/xhtml">
		    <p class="MsoNormal" style="margin-top:0in;margin-right:-.1pt;margin-bottom:0in; margin-left:28.35pt;text-indent:-28.35pt;line-height:normal"></p><p class="MsoNormal" style="margin-top:0in;margin-right:-1.45pt;margin-bottom: 0in;margin-left:0in;line-height:normal"><span style='font-family:"Times New Roman",serif'>Like all medicines, this medicine can cause side effects, although not everybody gets them. </span></p><p class="MsoNormal" style="margin-top:0in;margin-right:-1.45pt;margin-bottom: 0in;margin-left:0in;line-height:normal"></p><p class="MsoNormal" style="margin-top:0in;margin-right:-1.45pt;margin-bottom: 0in;margin-left:0in;line-height:normal"><span style='font-family:"Times New Roman",serif'>Some side effects observed in clinical studies with Zynteglo are related to mobilisation and blood stem cell collection or to the chemotherapy medicine used to prepare your bone marrow for treatment with Zynteglo. </span></p><p class="MsoNormal" style="margin-top:0in;margin-right:-1.45pt;margin-bottom: 0in;margin-left:0in;line-height:normal"></p><p class="MsoNormal" style="margin-top:0in;margin-right:-1.45pt;margin-bottom: 0in;margin-left:0in;line-height:normal"><span style='font-family:"Times New Roman",serif'>You should discuss possible side effects due to the mobilisation medicines and chemotherapy medicine with your doctor. You should also read the package leaflets for these medicines.</span></p><p class="MsoNormal" style="margin-top:0in;margin-right:-1.45pt;margin-bottom: 0in;margin-left:0in;line-height:normal"></p><p class="MsoNormal" style="margin-top:0in;margin-right:-1.45pt;margin-bottom: 0in;margin-left:0in;line-height:normal"><b><u><span style='font-family:"Times New Roman",serif'>Mobilisation and blood stem cell collection</span></u></b></p><p class="MsoNormal" style="margin-top:0in;margin-right:-1.45pt;margin-bottom: 0in;margin-left:0in;line-height:normal"><span style='font-family:"Times New Roman",serif'>Most of these side effects occur during or within a few days after mobilisation and blood stem cell collection but can occur later. Tell your doctor immediately if side effects become severe or serious. </span></p><p class="MsoNormal" style="margin-top:0in;margin-right:-1.45pt;margin-bottom: 0in;margin-left:0in;line-height:normal"></p><p class="MsoNormal" style="margin-top:0in;margin-right:-1.45pt;margin-bottom: 0in;margin-left:0in;line-height:normal"><b><span style='font-family:"Times New Roman",serif'>Very common side effects </span></b><span style='font-family:"Times New Roman",serif'>(may affect more than 1 in 10 people)</span></p><ul style="margin-top:0in" type="disc"> <li class="MsoNormal" style="margin-right:-1.45pt;margin-bottom:0in;line-height:      normal"><a name="_Hlk542621"><span style='font-family:"Times New Roman",serif'>a      low level of blood platelets, which may reduce the ability of blood to      clot</span></a></li> </ul><li class="MsoNormal" style="margin-right:-1.45pt;margin-bottom:0in;line-height:      normal"><a name="_Hlk542621"><span style='font-family:"Times New Roman",serif'>a      low level of blood platelets, which may reduce the ability of blood to      clot</span></a></li><a name="_Hlk542621"><span style='font-family:"Times New Roman",serif'>a      low level of blood platelets, which may reduce the ability of blood to      clot</span></a><span style='font-family:"Times New Roman",serif'>a      low level of blood platelets, which may reduce the ability of blood to      clot</span><p class="MsoListParagraph" style="margin-top:0in;margin-right:-1.45pt; margin-bottom:0in;margin-left:.5in;text-indent:-.25in;line-height:normal"><span style="font-family:Symbol">·</span><span style='font-family:"Times New Roman",serif'>bone pain</span></p><ul style="margin-top:0in" type="disc"> <li class="MsoNormal" style="margin-right:-1.45pt;margin-bottom:0in;line-height:      normal"><span style='font-family:"Times New Roman",serif'>numbness and      pain in hands and feet</span></li> </ul><li class="MsoNormal" style="margin-right:-1.45pt;margin-bottom:0in;line-height:      normal"><span style='font-family:"Times New Roman",serif'>numbness and      pain in hands and feet</span></li><span style='font-family:"Times New Roman",serif'>numbness and      pain in hands and feet</span><p class="MsoListParagraph" style="margin-top:0in;margin-right:-1.45pt; margin-bottom:0in;margin-left:.5in;text-indent:-.25in;line-height:normal"><span style="font-family:Symbol">·</span><span style='font-family:"Times New Roman",serif'>feeling sick (nausea)</span></p><ul style="margin-top:0in" type="disc"> <li class="MsoNormal" style="margin-right:-1.45pt;margin-bottom:0in;line-height:      normal"><span style='font-family:"Times New Roman",serif'>headache</span></li> </ul><li class="MsoNormal" style="margin-right:-1.45pt;margin-bottom:0in;line-height:      normal"><span style='font-family:"Times New Roman",serif'>headache</span></li><span style='font-family:"Times New Roman",serif'>headache</span><p class="MsoListParagraph" style="margin-top:0in;margin-right:-1.45pt; margin-bottom:0in;margin-left:.5in;text-indent:-.25in;line-height:normal"><span style="font-family:Symbol">·</span><span style='font-family:"Times New Roman",serif'>low blood calcium level</span></p><p class="MsoNormal" style="margin-top:0in;margin-right:-1.45pt;margin-bottom: 0in;margin-left:0in;line-height:normal"></p><p class="MsoNormal" style="margin-top:0in;margin-right:-1.45pt;margin-bottom: 0in;margin-left:0in;line-height:normal"><b><span style='font-family:"Times New Roman",serif'>Common side effects </span></b><span style='font-family:"Times New Roman",serif'>(may affect up to 1 in 10 people)</span></p><p class="MsoListParagraphCxSpFirst" style="margin-bottom:0in;text-indent:-.25in; line-height:normal"><a name="_Hlk540035"><span style="font-family:Symbol">·</span><span style='font-family:"Times New Roman",serif'>bleeding </span></a></p><p class="MsoListParagraphCxSpMiddle" style="margin-bottom:0in;text-indent:-.25in; line-height:normal"><span style="font-family:Symbol">·</span><span style='font-family:"Times New Roman",serif'>low oxygen level in blood </span></p><p class="MsoListParagraphCxSpMiddle" style="margin-bottom:0in;text-indent:-.25in; line-height:normal"><span style="font-family:Symbol">·</span><span style='font-family:"Times New Roman",serif'>low blood pressure</span></p><p class="MsoListParagraphCxSpMiddle" style="margin-bottom:0in;text-indent:-.25in; line-height:normal"><span style="font-family:Symbol">·</span><span style='font-family:"Times New Roman",serif'>abdominal pain</span></p><p class="MsoListParagraphCxSpMiddle" style="margin-bottom:0in;text-indent:-.25in; line-height:normal"><span style="font-family:Symbol">·</span><span style='font-family:"Times New Roman",serif'>back pain</span></p><p class="MsoListParagraphCxSpMiddle" style="margin-bottom:0in;text-indent:-.25in; line-height:normal"><span style="font-family:Symbol">·</span><span style='font-family:"Times New Roman",serif'>bone or muscle pain</span></p><p class="MsoListParagraphCxSpMiddle" style="margin-bottom:0in;text-indent:-.25in; line-height:normal"><span style="font-family:Symbol">·</span><span style='font-family:"Times New Roman",serif'>chest pain or discomfort</span></p><p class="MsoListParagraphCxSpMiddle" style="margin-bottom:0in;text-indent:-.25in; line-height:normal"><span style="font-family:Symbol">·</span><span style='font-family:"Times New Roman",serif'>other pain</span></p><p class="MsoListParagraphCxSpMiddle" style="margin-bottom:0in;text-indent:-.25in; line-height:normal"><span style="font-family:Symbol">·</span><span style='font-family:"Times New Roman",serif'>agitation </span></p><p class="MsoListParagraphCxSpMiddle" style="margin-bottom:0in;text-indent:-.25in; line-height:normal"><span style="font-family:Symbol">·</span><span style='font-family:"Times New Roman",serif'>abnormal blood test results (decrease in magnesium and potassium, too much citrate, or increase in white blood cells)</span></p><p class="MsoListParagraphCxSpMiddle" style="margin-bottom:0in;text-indent:-.25in; line-height:normal"><span style="font-family:Symbol">·</span><span style='font-family:"Times New Roman",serif'>abnormal heart rhythm </span></p><p class="MsoListParagraphCxSpMiddle" style="margin-bottom:0in;text-indent:-.25in; line-height:normal"><span style="font-family:Symbol">·</span><span style='font-family:"Times New Roman",serif'>bruising, bleeding or pain from catheter or injection site</span></p><p class="MsoListParagraphCxSpMiddle" style="margin-bottom:0in;text-indent:-.25in; line-height:normal"><span style="font-family:Symbol">·</span><span style='font-family:"Times New Roman",serif'>injection site reaction </span></p><p class="MsoListParagraphCxSpMiddle" style="margin-bottom:0in;text-indent:-.25in; line-height:normal"><span style="font-family:Symbol">·</span><span style='font-family:"Times New Roman",serif'>bruising  </span></p><p class="MsoListParagraphCxSpMiddle" style="margin-bottom:0in;text-indent:-.25in; line-height:normal"><span style="font-family:Symbol">·</span><span style='font-family:"Times New Roman",serif'>dizziness, tiredness</span></p><p class="MsoListParagraphCxSpMiddle" style="margin-bottom:0in;text-indent:-.25in; line-height:normal"><span style="font-family:Symbol">·</span><span style='font-family:"Times New Roman",serif'>head discomfort</span></p><p class="MsoListParagraphCxSpMiddle" style="margin-bottom:0in;text-indent:-.25in; line-height:normal"><span style="font-family:Symbol">·</span><span style='font-family:"Times New Roman",serif'>excessive sweating</span></p><p class="MsoListParagraphCxSpMiddle" style="margin-bottom:0in;text-indent:-.25in; line-height:normal"><span style="font-family:Symbol">·</span><span style='font-family:"Times New Roman",serif'>flu like illness</span></p><p class="MsoListParagraphCxSpMiddle" style="margin-bottom:0in;text-indent:-.25in; line-height:normal"><span style="font-family:Symbol">·</span><span style='font-family:"Times New Roman",serif'>lip swelling</span></p><p class="MsoListParagraphCxSpMiddle" style="margin-bottom:0in;text-indent:-.25in; line-height:normal"><span style="font-family:Symbol">·</span><span style='font-family:"Times New Roman",serif'>tingling or numbness of the hands, feet, or mouth</span></p><p class="MsoListParagraphCxSpMiddle" style="margin-bottom:0in;text-indent:-.25in; line-height:normal"><span style="font-family:Symbol">·</span><span style='font-family:"Times New Roman",serif'>fever</span></p><p class="MsoListParagraphCxSpMiddle" style="margin-bottom:0in;text-indent:-.25in; line-height:normal"><span style="font-family:Symbol">·</span><span style='font-family:"Times New Roman",serif'>rash</span></p><p class="MsoListParagraphCxSpMiddle" style="margin-bottom:0in;text-indent:-.25in; line-height:normal"><span style="font-family:Symbol">·</span><span style='font-family:"Times New Roman",serif'>enlarged spleen which may result in pain in your upper left belly or left shoulder</span></p><p class="MsoListParagraphCxSpLast" style="margin-bottom:0in;text-indent:-.25in; line-height:normal"><span style="font-family:Symbol">·</span><span style='font-family:"Times New Roman",serif'>vomiting </span></p><p class="MsoNormal" style="margin-top:0in;margin-right:-1.45pt;margin-bottom: 0in;margin-left:0in;line-height:normal"><b><u><span style='font-family:"Times New Roman",serif'></span></u></b></p><p class="MsoNormal" style="margin-top:0in;margin-right:-1.45pt;margin-bottom: 0in;margin-left:0in;line-height:normal"><b><u><span style='font-family:"Times New Roman",serif'>Chemotherapy medicine</span></u></b></p><p class="MsoNormal" style="margin-top:0in;margin-right:-1.45pt;margin-bottom: 0in;margin-left:0in;line-height:normal"><b><span style='font-family:"Times New Roman",serif'>Tell your doctor immediately </span></b><span style='font-family:"Times New Roman",serif'>if you get any of the following side effects after receiving chemotherapy medicine. They usually happen within the first few days and several weeks after receiving chemotherapy medicine, but can also develop much later.</span></p><p class="MsoNormal" style="margin-top:0in;margin-right:-1.45pt;margin-bottom: 0in;margin-left:0in;line-height:normal"></p><p class="MsoNormal" style="margin-top:0in;margin-right:-1.45pt;margin-bottom: 0in;margin-left:0in;line-height:normal"><b><span style='font-family:"Times New Roman",serif'>Very common </span></b><span style='font-family:"Times New Roman",serif'>(may affect more than 1 in 10 people)</span></p><p class="MsoListParagraphCxSpFirst" style="margin-top:0in;margin-right:-1.45pt; margin-bottom:0in;margin-left:.5in;text-indent:-.25in;line-height:normal"><span style="font-family:Symbol">·</span><span style='font-family:"Times New Roman",serif'>Pain in the right upper abdomen under the ribs, yellowing of eyes or skin, rapid weight gain, swelling of arms, legs and abdomen, and trouble breathing. These may be signs of a serious liver condition called veno-occlusive disease.</span></p><p class="MsoListParagraphCxSpLast" style="margin-top:0in;margin-right:-1.45pt; margin-bottom:0in;margin-left:.5in;text-indent:-.25in;line-height:normal"><span style="font-family:Symbol">·</span><span style='font-family:"Times New Roman",serif'>Prolonged bleeding or bleeding without injury such as nosebleeds, bleeding from gums, or vaginal bleeding.</span></p><p class="MsoNormal" style="margin-top:0in;margin-right:-1.45pt;margin-bottom: 0in;margin-left:0in;line-height:normal"></p><p class="MsoNormal" style="margin-top:0in;margin-right:-1.45pt;margin-bottom: 0in;margin-left:0in;line-height:normal"><b><span style='font-family:"Times New Roman",serif'>Other possible side effects</span></b></p><p class="MsoNormal" style="margin-top:0in;margin-right:-1.45pt;margin-bottom: 0in;margin-left:0in;line-height:normal"></p><p class="MsoNormal" style="margin-top:0in;margin-right:-1.45pt;margin-bottom: 0in;margin-left:0in;line-height:normal"><span style='font-family:"Times New Roman",serif'>Tell your doctor immediately if side effects become severe or serious.</span></p><p class="MsoNormal" style="margin-top:0in;margin-right:-1.45pt;margin-bottom: 0in;margin-left:0in;line-height:normal"></p><p class="MsoNormal" style="margin-top:0in;margin-right:-1.45pt;margin-bottom: 0in;margin-left:0in;line-height:normal"><b><span style='font-family:"Times New Roman",serif'>Very common side effects </span></b><span style='font-family:"Times New Roman",serif'>(may affect more than 1 in 10 people)</span></p><ul style="margin-top:0in" type="disc"> <li class="MsoNormal" style="margin-right:-1.45pt;margin-bottom:0in;line-height:      normal"><a name="_Hlk543255"><span style='font-family:"Times New Roman",serif'>low      level of red and white blood cells, sometimes with a fever</span></a></li> <li class="MsoNormal" style="margin-right:-1.45pt;margin-bottom:0in;line-height:      normal"><span style='font-family:"Times New Roman",serif'>increase of      certain enzymes in the blood which may indicate a problem with your liver</span></li> <li class="MsoNormal" style="margin-right:-1.45pt;margin-bottom:0in;line-height:      normal"><span style='font-family:"Times New Roman",serif'>a low level of      blood platelets, which may reduce the ability of blood to clot</span></li> <li class="MsoNormal" style="margin-right:-1.45pt;margin-bottom:0in;line-height:      normal"><span style='font-family:"Times New Roman",serif'>unusual hair      loss or thinning</span></li> <li class="MsoNormal" style="margin-right:-1.45pt;margin-bottom:0in;line-height:      normal"><span style='font-family:"Times New Roman",serif'>stomach pain, constipation,      diarrhoea</span></li> <li class="MsoNormal" style="margin-right:-1.45pt;margin-bottom:0in;line-height:      normal"><span style='font-family:"Times New Roman",serif'>feeling sick      (nausea), being sick (vomiting)</span></li> <li class="MsoNormal" style="margin-right:-1.45pt;margin-bottom:0in;line-height:      normal"><span style='font-family:"Times New Roman",serif'>fever</span></li> <li class="MsoNormal" style="margin-right:-1.45pt;margin-bottom:0in;line-height:      normal"><span style='font-family:"Times New Roman",serif'>soreness of the      mouth</span></li> <li class="MsoNormal" style="margin-right:-1.45pt;margin-bottom:0in;line-height:      normal"><span style='font-family:"Times New Roman",serif'>inflammation of      the throat</span></li> <li class="MsoNormal" style="margin-right:-1.45pt;margin-bottom:0in;line-height:      normal"><span style='font-family:"Times New Roman",serif'>dark patches on      skin</span></li> <li class="MsoNormal" style="margin-right:-1.45pt;margin-bottom:0in;line-height:      normal"><span style='font-family:"Times New Roman",serif'>soreness of the      rectum area</span></li> <li class="MsoNormal" style="margin-right:-1.45pt;margin-bottom:0in;line-height:      normal"><span style='font-family:"Times New Roman",serif'>trouble sleeping</span></li> <li class="MsoNormal" style="margin-right:-1.45pt;margin-bottom:0in;line-height:      normal"><span style='font-family:"Times New Roman",serif'>decreased      appetite</span></li> <li class="MsoNormal" style="margin-right:-1.45pt;margin-bottom:0in;line-height:      normal"><span style='font-family:"Times New Roman",serif'>headache</span></li> <li class="MsoNormal" style="margin-right:-1.45pt;margin-bottom:0in;line-height:      normal"><span style='font-family:"Times New Roman",serif'>tiredness</span></li> <li class="MsoNormal" style="margin-right:-1.45pt;margin-bottom:0in;line-height:      normal"><span style='font-family:"Times New Roman",serif'>itchy skin</span></li> </ul><li class="MsoNormal" style="margin-right:-1.45pt;margin-bottom:0in;line-height:      normal"><a name="_Hlk543255"><span style='font-family:"Times New Roman",serif'>low      level of red and white blood cells, sometimes with a fever</span></a></li><a name="_Hlk543255"><span style='font-family:"Times New Roman",serif'>low      level of red and white blood cells, sometimes with a fever</span></a><span style='font-family:"Times New Roman",serif'>low      level of red and white blood cells, sometimes with a fever</span><li class="MsoNormal" style="margin-right:-1.45pt;margin-bottom:0in;line-height:      normal"><span style='font-family:"Times New Roman",serif'>increase of      certain enzymes in the blood which may indicate a problem with your liver</span></li><span style='font-family:"Times New Roman",serif'>increase of      certain enzymes in the blood which may indicate a problem with your liver</span><li class="MsoNormal" style="margin-right:-1.45pt;margin-bottom:0in;line-height:      normal"><span style='font-family:"Times New Roman",serif'>a low level of      blood platelets, which may reduce the ability of blood to clot</span></li><span style='font-family:"Times New Roman",serif'>a low level of      blood platelets, which may reduce the ability of blood to clot</span><li class="MsoNormal" style="margin-right:-1.45pt;margin-bottom:0in;line-height:      normal"><span style='font-family:"Times New Roman",serif'>unusual hair      loss or thinning</span></li><span style='font-family:"Times New Roman",serif'>unusual hair      loss or thinning</span><li class="MsoNormal" style="margin-right:-1.45pt;margin-bottom:0in;line-height:      normal"><span style='font-family:"Times New Roman",serif'>stomach pain, constipation,      diarrhoea</span></li><span style='font-family:"Times New Roman",serif'>stomach pain, constipation,      diarrhoea</span><li class="MsoNormal" style="margin-right:-1.45pt;margin-bottom:0in;line-height:      normal"><span style='font-family:"Times New Roman",serif'>feeling sick      (nausea), being sick (vomiting)</span></li><span style='font-family:"Times New Roman",serif'>feeling sick      (nausea), being sick (vomiting)</span><li class="MsoNormal" style="margin-right:-1.45pt;margin-bottom:0in;line-height:      normal"><span style='font-family:"Times New Roman",serif'>fever</span></li><span style='font-family:"Times New Roman",serif'>fever</span><li class="MsoNormal" style="margin-right:-1.45pt;margin-bottom:0in;line-height:      normal"><span style='font-family:"Times New Roman",serif'>soreness of the      mouth</span></li><span style='font-family:"Times New Roman",serif'>soreness of the      mouth</span><li class="MsoNormal" style="margin-right:-1.45pt;margin-bottom:0in;line-height:      normal"><span style='font-family:"Times New Roman",serif'>inflammation of      the throat</span></li><span style='font-family:"Times New Roman",serif'>inflammation of      the throat</span><li class="MsoNormal" style="margin-right:-1.45pt;margin-bottom:0in;line-height:      normal"><span style='font-family:"Times New Roman",serif'>dark patches on      skin</span></li><span style='font-family:"Times New Roman",serif'>dark patches on      skin</span><li class="MsoNormal" style="margin-right:-1.45pt;margin-bottom:0in;line-height:      normal"><span style='font-family:"Times New Roman",serif'>soreness of the      rectum area</span></li><span style='font-family:"Times New Roman",serif'>soreness of the      rectum area</span><li class="MsoNormal" style="margin-right:-1.45pt;margin-bottom:0in;line-height:      normal"><span style='font-family:"Times New Roman",serif'>trouble sleeping</span></li><span style='font-family:"Times New Roman",serif'>trouble sleeping</span><li class="MsoNormal" style="margin-right:-1.45pt;margin-bottom:0in;line-height:      normal"><span style='font-family:"Times New Roman",serif'>decreased      appetite</span></li><span style='font-family:"Times New Roman",serif'>decreased      appetite</span><li class="MsoNormal" style="margin-right:-1.45pt;margin-bottom:0in;line-height:      normal"><span style='font-family:"Times New Roman",serif'>headache</span></li><span style='font-family:"Times New Roman",serif'>headache</span><li class="MsoNormal" style="margin-right:-1.45pt;margin-bottom:0in;line-height:      normal"><span style='font-family:"Times New Roman",serif'>tiredness</span></li><span style='font-family:"Times New Roman",serif'>tiredness</span><li class="MsoNormal" style="margin-right:-1.45pt;margin-bottom:0in;line-height:      normal"><span style='font-family:"Times New Roman",serif'>itchy skin</span></li><span style='font-family:"Times New Roman",serif'>itchy skin</span><p class="MsoListParagraph" style="margin-bottom:0in;text-indent:-.25in; line-height:normal"><span style="font-family:Symbol">·</span><span style='font-family:"Times New Roman",serif'>soreness and swelling of the digestive tract lining which runs from the mouth to the anus</span></p><p class="MsoNormal" style="margin-top:0in;margin-right:-1.45pt;margin-bottom: 0in;margin-left:.5in;line-height:normal"></p><p class="MsoNormal" style="margin-top:0in;margin-right:-1.45pt;margin-bottom: 0in;margin-left:0in;line-height:normal"><b><span style='font-family:"Times New Roman",serif'>Common side effects </span></b><span style='font-family:"Times New Roman",serif'>(may affect up to 1 in 10 people)</span></p><p class="MsoListParagraphCxSpFirst" style="margin-bottom:0in;text-indent:-.25in; line-height:normal"><span style="font-family:Symbol">·</span><span style='font-family:"Times New Roman",serif'>life-threatening inflammatory response to an infection along with low white blood cell count</span></p><p class="MsoListParagraphCxSpMiddle" style="margin-bottom:0in;text-indent:-.25in; line-height:normal"><span style="font-family:Symbol">·</span><span style='font-family:"Times New Roman",serif'>heart failure</span></p><p class="MsoListParagraphCxSpMiddle" style="margin-bottom:0in;text-indent:-.25in; line-height:normal"><span style="font-family:Symbol">·</span><span style='font-family:"Times New Roman",serif'>infections which may make you feel warm, chilly, or sweaty</span></p><p class="MsoListParagraphCxSpMiddle" style="margin-bottom:0in;text-indent:-.25in; line-height:normal"><span style="font-family:Symbol">·</span><span style='font-family:"Times New Roman",serif'>mass in the lungs</span></p><p class="MsoListParagraphCxSpMiddle" style="margin-bottom:0in;text-indent:-.25in; line-height:normal"><span style="font-family:Symbol">·</span><span style='font-family:"Times New Roman",serif'>enlarged abdomen</span></p><p class="MsoListParagraphCxSpMiddle" style="margin-bottom:0in;text-indent:-.25in; line-height:normal"><span style="font-family:Symbol">·</span><span style='font-family:"Times New Roman",serif'>enlarged liver</span></p><p class="MsoListParagraphCxSpMiddle" style="margin-bottom:0in;text-indent:-.25in; line-height:normal"><span style="font-family:Symbol">·</span><span style='font-family:"Times New Roman",serif'>difficulty breathing </span></p><p class="MsoListParagraphCxSpMiddle" style="margin-bottom:0in;text-indent:-.25in; line-height:normal"><span style="font-family:Symbol">·</span><span style='font-family:"Times New Roman",serif'>abdominal pain</span></p><p class="MsoListParagraphCxSpMiddle" style="margin-bottom:0in;text-indent:-.25in; line-height:normal"><span style="font-family:Symbol">·</span><span style='font-family:"Times New Roman",serif'>bleeding or bruising </span></p><p class="MsoListParagraphCxSpMiddle" style="margin-bottom:0in;text-indent:-.25in; line-height:normal"><span style="font-family:Symbol">·</span><span style='font-family:"Times New Roman",serif'>blood in urine</span></p><p class="MsoListParagraphCxSpMiddle" style="margin-bottom:0in;text-indent:-.25in; line-height:normal"><span style="font-family:Symbol">·</span><span style='font-family:"Times New Roman",serif'>yellowing of eyes or skin</span></p><p class="MsoListParagraphCxSpMiddle" style="margin-bottom:0in;text-indent:-.25in; line-height:normal"><span style="font-family:Symbol">·</span><span style='font-family:"Times New Roman",serif'>small tear in tissue that lines the anus</span></p><p class="MsoListParagraphCxSpMiddle" style="margin-bottom:0in;text-indent:-.25in; line-height:normal"><span style="font-family:Symbol">·</span><span style='font-family:"Times New Roman",serif'>dizziness, or sensation of feeling off balance or like the room is spinning</span></p><p class="MsoListParagraphCxSpMiddle" style="margin-bottom:0in;text-indent:-.25in; line-height:normal"><span style="font-family:Symbol">·</span><span style='font-family:"Times New Roman",serif'>memory problems </span></p><p class="MsoListParagraphCxSpMiddle" style="margin-bottom:0in;text-indent:-.25in; line-height:normal"><span style="font-family:Symbol">·</span><span style='font-family:"Times New Roman",serif'>anxiety </span></p><p class="MsoListParagraphCxSpMiddle" style="margin-bottom:0in;text-indent:-.25in; line-height:normal"><span style="font-family:Symbol">·</span><span style='font-family:"Times New Roman",serif'>positive test for Aspergillus (lung disease caused by fungus)</span></p><p class="MsoListParagraphCxSpMiddle" style="margin-bottom:0in;text-indent:-.25in; line-height:normal"><span style="font-family:Symbol">·</span><span style='font-family:"Times New Roman",serif'>changes and abnormalities in heart rhythm</span></p><p class="MsoListParagraphCxSpMiddle" style="margin-bottom:0in;text-indent:-.25in; line-height:normal"><span style="font-family:Symbol">·</span><span style='font-family:"Times New Roman",serif'>pain, including in back, bone, skin, limbs, anus, or muscles</span></p><p class="MsoListParagraphCxSpMiddle" style="margin-bottom:0in;text-indent:-.25in; line-height:normal"><span style="font-family:Symbol">·</span><span style='font-family:"Times New Roman",serif'>vaginal yeast infection</span></p><p class="MsoListParagraphCxSpMiddle" style="margin-bottom:0in;text-indent:-.25in; line-height:normal"><span style="font-family:Symbol">·</span><span style='font-family:"Times New Roman",serif'>heartburn</span></p><p class="MsoListParagraphCxSpMiddle" style="margin-bottom:0in;text-indent:-.25in; line-height:normal"><span style="font-family:Symbol">·</span><span style='font-family:"Times New Roman",serif'>inflammation of the gallbladder</span></p><p class="MsoListParagraphCxSpMiddle" style="margin-bottom:0in;text-indent:-.25in; line-height:normal"><span style="font-family:Symbol">·</span><span style='font-family:"Times New Roman",serif'>gallstones</span></p><p class="MsoListParagraphCxSpMiddle" style="margin-bottom:0in;text-indent:-.25in; line-height:normal"><span style="font-family:Symbol">·</span><span style='font-family:"Times New Roman",serif'>cough</span></p><p class="MsoListParagraphCxSpMiddle" style="margin-bottom:0in;text-indent:-.25in; line-height:normal"><span style="font-family:Symbol">·</span><span style='font-family:"Times New Roman",serif'>abnormal sense of taste or loss of taste</span></p><p class="MsoListParagraphCxSpMiddle" style="margin-bottom:0in;text-indent:-.25in; line-height:normal"><span style="font-family:Symbol">·</span><span style='font-family:"Times New Roman",serif'>difficulty swallowing</span></p><p class="MsoListParagraphCxSpMiddle" style="margin-bottom:0in;text-indent:-.25in; line-height:normal"><span style="font-family:Symbol">·</span><span style='font-family:"Times New Roman",serif'>swelling of the face</span></p><p class="MsoListParagraphCxSpMiddle" style="margin-bottom:0in;text-indent:-.25in; line-height:normal"><span style="font-family:Symbol">·</span><span style='font-family:"Times New Roman",serif'>feeling cold</span></p><p class="MsoListParagraphCxSpMiddle" style="margin-bottom:0in;text-indent:-.25in; line-height:normal"><span style="font-family:Symbol">·</span><span style='font-family:"Times New Roman",serif'>excess water in the body</span></p><p class="MsoListParagraphCxSpMiddle" style="margin-bottom:0in;text-indent:-.25in; line-height:normal"><span style="font-family:Symbol">·</span><span style='font-family:"Times New Roman",serif'>inflammation or infection of hair follicles</span></p><p class="MsoListParagraphCxSpMiddle" style="margin-bottom:0in;text-indent:-.25in; line-height:normal"><span style="font-family:Symbol">·</span><span style='font-family:"Times New Roman",serif'>decrease in speed of air leaving your lungs</span></p><p class="MsoListParagraphCxSpMiddle" style="margin-bottom:0in;text-indent:-.25in; line-height:normal"><span style="font-family:Symbol">·</span><span style='font-family:"Times New Roman",serif'>stomach discomfort with nausea and vomiting</span></p><p class="MsoListParagraphCxSpMiddle" style="margin-bottom:0in;text-indent:-.25in; line-height:normal"><span style="font-family:Symbol">·</span><span style='font-family:"Times New Roman",serif'>inflammation in the digestive tract</span></p><p class="MsoListParagraphCxSpMiddle" style="margin-bottom:0in;text-indent:-.25in; line-height:normal"><span style="font-family:Symbol">·</span><span style='font-family:"Times New Roman",serif'>gum disease</span></p><p class="MsoListParagraphCxSpMiddle" style="margin-bottom:0in;text-indent:-.25in; line-height:normal"><span style="font-family:Symbol">·</span><span style='font-family:"Times New Roman",serif'>piles (haemorrhoids)</span></p><p class="MsoListParagraphCxSpMiddle" style="margin-bottom:0in;text-indent:-.25in; line-height:normal"><span style="font-family:Symbol">·</span><span style='font-family:"Times New Roman",serif'>hiccups</span></p><p class="MsoListParagraphCxSpMiddle" style="margin-bottom:0in;text-indent:-.25in; line-height:normal"><span style="font-family:Symbol">·</span><span style='font-family:"Times New Roman",serif'>low blood pressure</span></p><p class="MsoListParagraphCxSpMiddle" style="margin-bottom:0in;text-indent:-.25in; line-height:normal"><span style="font-family:Symbol">·</span><span style='font-family:"Times New Roman",serif'>low body temperature</span></p><p class="MsoListParagraphCxSpMiddle" style="margin-bottom:0in;text-indent:-.25in; line-height:normal"><span style="font-family:Symbol">·</span><span style='font-family:"Times New Roman",serif'>low oxygen level in blood</span></p><p class="MsoListParagraphCxSpMiddle" style="margin-bottom:0in;text-indent:-.25in; line-height:normal"><span style="font-family:Symbol">·</span><span style='font-family:"Times New Roman",serif'>pain in mouth, throat or larynx (voice box)</span></p><p class="MsoListParagraphCxSpMiddle" style="margin-bottom:0in;text-indent:-.25in; line-height:normal"><span style="font-family:Symbol">·</span><span style='font-family:"Times New Roman",serif'>lack of energy</span></p><p class="MsoListParagraphCxSpMiddle" style="margin-bottom:0in;text-indent:-.25in; line-height:normal"><span style="font-family:Symbol">·</span><span style='font-family:"Times New Roman",serif'>irregular menstruation</span></p><p class="MsoListParagraphCxSpMiddle" style="margin-bottom:0in;text-indent:-.25in; line-height:normal"><span style="font-family:Symbol">·</span><span style='font-family:"Times New Roman",serif'>loss of function or decreased function of your ovaries or testes</span></p><p class="MsoListParagraphCxSpMiddle" style="margin-bottom:0in;text-indent:-.25in; line-height:normal"><span style="font-family:Symbol">·</span><span style='font-family:"Times New Roman",serif'>premature menopause </span></p><p class="MsoListParagraphCxSpMiddle" style="margin-bottom:0in;text-indent:-.25in; line-height:normal"><span style="font-family:Symbol">·</span><span style='font-family:"Times New Roman",serif'>spots on skin from bleeding under the skin</span></p><p class="MsoListParagraphCxSpMiddle" style="margin-bottom:0in;text-indent:-.25in; line-height:normal"><span style="font-family:Symbol">·</span><span style='font-family:"Times New Roman",serif'>skin that is discoloured, blotchy, or darker or lighter than normal </span></p><p class="MsoListParagraphCxSpMiddle" style="margin-bottom:0in;text-indent:-.25in; line-height:normal"><span style="font-family:Symbol">·</span><span style='font-family:"Times New Roman",serif'>fluid in or around the lung</span></p><p class="MsoListParagraphCxSpMiddle" style="margin-bottom:0in;text-indent:-.25in; line-height:normal"><span style="font-family:Symbol">·</span><span style='font-family:"Times New Roman",serif'>hot flush</span></p><p class="MsoListParagraphCxSpMiddle" style="margin-bottom:0in;text-indent:-.25in; line-height:normal"><span style="font-family:Symbol">·</span><span style='font-family:"Times New Roman",serif'>increased frequency of urination</span></p><p class="MsoListParagraphCxSpMiddle" style="margin-bottom:0in;text-indent:-.25in; line-height:normal"><span style="font-family:Symbol">·</span><span style='font-family:"Times New Roman",serif'>dry, itchy skin </span></p><p class="MsoListParagraphCxSpMiddle" style="margin-bottom:0in;text-indent:-.25in; line-height:normal"><span style="font-family:Symbol">·</span><span style='font-family:"Times New Roman",serif'>dry lips</span></p><p class="MsoListParagraphCxSpMiddle" style="margin-bottom:0in;text-indent:-.25in; line-height:normal"><span style="font-family:Symbol">·</span><span style='font-family:"Times New Roman",serif'>rash sometimes with lesions or pus </span></p><p class="MsoListParagraphCxSpMiddle" style="margin-bottom:0in;text-indent:-.25in; line-height:normal"><span style="font-family:Symbol">·</span><span style='font-family:"Times New Roman",serif'>inflamed skin lesions</span></p><p class="MsoListParagraphCxSpMiddle" style="margin-bottom:0in;text-indent:-.25in; line-height:normal"><span style="font-family:Symbol">·</span><span style='font-family:"Times New Roman",serif'>skin abrasion/scrape</span></p><p class="MsoListParagraphCxSpMiddle" style="margin-bottom:0in;text-indent:-.25in; line-height:normal"><span style="font-family:Symbol">·</span><span style='font-family:"Times New Roman",serif'>sweat gland disorder</span></p><p class="MsoListParagraphCxSpMiddle" style="margin-bottom:0in;text-indent:-.25in; line-height:normal"><span style="font-family:Symbol">·</span><span style='font-family:"Times New Roman",serif'>transfusion reaction</span></p><p class="MsoListParagraphCxSpMiddle" style="margin-bottom:0in;text-indent:-.25in; line-height:normal"><span style="font-family:Symbol">·</span><span style='font-family:"Times New Roman",serif'>weight decreased</span></p><p class="MsoListParagraphCxSpMiddle" style="margin-bottom:0in;text-indent:-.25in; line-height:normal"><span style="font-family:Symbol">·</span><span style='font-family:"Times New Roman",serif'>abnormal liver tests</span></p><p class="MsoListParagraphCxSpMiddle" style="margin-bottom:0in;text-indent:-.25in; line-height:normal"><span style="font-family:Symbol">·</span><span style='font-family:"Times New Roman",serif'>increased concentration of haemoglobin in cells</span></p><p class="MsoListParagraphCxSpMiddle" style="margin-bottom:0in;text-indent:-.25in; line-height:normal"><span lang="DE" style="font-family:Symbol">·</span><span lang="DE" style='font-family:"Times New Roman",serif'>changes in magnesium, calcium, potassium, phosphate, albumin, protein, sodium in blood</span></p><p class="MsoListParagraphCxSpMiddle" style="margin-bottom:0in;text-indent:-.25in; line-height:normal"><span lang="EN-GB" style="font-family:Symbol">·</span><span style='font-family:"Times New Roman",serif'>increase in blood test for inflammation</span></p><p class="MsoListParagraph" style="margin-bottom:0in;text-indent:-.25in; line-height:normal"><span style="font-family:Symbol">·</span><span style='font-family:"Times New Roman",serif'>excess acid in the body not removed by the kidneys</span></p><p class="MsoListParagraph" style="margin-bottom:0in;text-indent:-.25in; line-height:normal"><span style="font-family:Symbol">·</span><span style='font-family:"Times New Roman",serif'>increase or decrease in white blood cells</span></p><p class="MsoListParagraph" style="margin-bottom:0in;text-indent:-.25in; line-height:normal"><span style="font-family:Symbol">·</span><span style='font-family:"Times New Roman",serif'>low number of immature (not fully developed) red blood cells </span></p><p class="MsoListParagraph" style="margin-bottom:0in;text-indent:-.25in; line-height:normal"><span style="font-family:Symbol">·</span><span style='font-family:"Times New Roman",serif'>increase in female hormones</span></p><p class="MsoListParagraph" style="margin-bottom:0in;text-indent:-.25in; line-height:normal"><span style="font-family:Symbol">·</span><span style='font-family:"Times New Roman",serif'>decreased testosterone</span></p><p class="MsoNormal" style="margin-top:0in;margin-right:-1.45pt;margin-bottom: 0in;margin-left:0in;line-height:normal"><b><u><span style='font-family:"Times New Roman",serif'></span></u></b></p><p class="MsoNormal" style="margin-top:0in;margin-right:-1.45pt;margin-bottom: 0in;margin-left:0in;line-height:normal;page-break-after:avoid"><b><u><span style='font-family:"Times New Roman",serif'>Zynteglo</span></u></b></p><p class="MsoNormal" style="margin-top:0in;margin-right:-1.45pt;margin-bottom: 0in;margin-left:0in;line-height:normal"><span style='font-family:"Times New Roman",serif'>Most side effects occur during or within a few days after treatment with Zynteglo but can occur later. </span><span style='font-family:"Times New Roman",serif'>Tell your doctor immediately if side effects become severe or serious.</span></p><p class="MsoNormal" style="margin-top:0in;margin-right:-1.45pt;margin-bottom: 0in;margin-left:0in;line-height:normal"></p><p class="MsoNormal" style="margin-top:0in;margin-right:-1.45pt;margin-bottom: 0in;margin-left:0in;line-height:normal"><b><span style='font-family:"Times New Roman",serif'>Very common side effects </span></b><span style='font-family:"Times New Roman",serif'>(may affect more than 1 in 10 people)</span></p><p class="MsoListParagraph" style="margin-top:0in;margin-right:-1.45pt; margin-bottom:0in;margin-left:.5in;text-indent:-.25in;line-height:normal"><span style="font-family:Symbol">·</span><span style='font-family:"Times New Roman",serif'>stomach pain</span></p><p class="MsoNormal" style="margin-top:0in;margin-right:-1.45pt;margin-bottom: 0in;margin-left:0in;line-height:normal"></p><p class="MsoNormal" style="margin-top:0in;margin-right:-1.45pt;margin-bottom: 0in;margin-left:0in;line-height:normal"><b><span style='font-family:"Times New Roman",serif'>Common side effects </span></b><span style='font-family:"Times New Roman",serif'>(may affect up to 1 in 10 people)</span></p><ul style="margin-top:0in" type="disc"> <li class="MsoNormal" style="margin-right:-1.45pt;margin-bottom:0in;line-height:      normal"><span style='font-family:"Times New Roman",serif'>low level of      blood platelets, which may reduce the ability of blood to clot</span></li> <li class="MsoNormal" style="margin-right:-1.45pt;margin-bottom:0in;line-height:      normal"><span style='font-family:"Times New Roman",serif'>low level of      white blood cells</span></li> </ul><li class="MsoNormal" style="margin-right:-1.45pt;margin-bottom:0in;line-height:      normal"><span style='font-family:"Times New Roman",serif'>low level of      blood platelets, which may reduce the ability of blood to clot</span></li><span style='font-family:"Times New Roman",serif'>low level of      blood platelets, which may reduce the ability of blood to clot</span><li class="MsoNormal" style="margin-right:-1.45pt;margin-bottom:0in;line-height:      normal"><span style='font-family:"Times New Roman",serif'>low level of      white blood cells</span></li><span style='font-family:"Times New Roman",serif'>low level of      white blood cells</span><p class="MsoListParagraph" style="margin-top:0in;margin-right:-1.45pt; margin-bottom:0in;margin-left:.5in;text-indent:-.25in;line-height:normal"><span style="font-family:Symbol">·</span><span style='font-family:"Times New Roman",serif'>shortness of breath</span></p><p class="MsoListParagraph" style="margin-top:0in;margin-right:-1.45pt; margin-bottom:0in;margin-left:.5in;text-indent:-.25in;line-height:normal"><span style="font-family:Symbol">·</span><span style='font-family:"Times New Roman",serif'>chest pain not due to a heart problem</span></p><p class="MsoListParagraph" style="margin-top:0in;margin-right:-1.45pt; margin-bottom:0in;margin-left:.5in;text-indent:-.25in;line-height:normal"><span style="font-family:Symbol">·</span><span style='font-family:"Times New Roman",serif'>flushing (redness and warmth of skin)</span></p><p class="MsoListParagraph" style="margin-top:0in;margin-right:-1.45pt; margin-bottom:0in;margin-left:.5in;text-indent:-.25in;line-height:normal"><span style="font-family:Symbol">·</span><span style='font-family:"Times New Roman",serif'>pain in legs</span></p><p class="MsoListParagraph" style="margin-top:0in;margin-right:-1.45pt; margin-bottom:0in;margin-left:.5in;line-height:normal"></p>
			</div>
		</text>
		
    	    

			    
		               
<section>
			<title value="Reporting of side effects"/>
				<code>
					<coding>
						<system value="http://spor.ema.europa.eu/v1/example-sections"/>
						<code value="${document[n].section[n].subsection[n].typeCode}"/>
						<display value="${document[n].section[n].subsection[n].typeDisplay}"/>
					</coding>
				</code>
		<text>
			<status value="additional"/>
			<div xmlns="http://www.w3.org/1999/xhtml">
		    <p class="MsoNormal" style="margin-top:0in;margin-right:-1.45pt;margin-bottom: 0in;margin-left:0in;line-height:normal"><span style='font-family:"Times New Roman",serif'>If you get any side effects, talk to your doctor or nurse. This includes any possible side effects not listed in this leaflet. You can also report side effects directly via <span style="background:lightgrey">the national reporting system listed in </span></span><a href="http://www.ema.europa.eu/docs/en_GB/document_library/Template_or_form/2013/03/WC500139752.doc"><span style='font-family:"Times New Roman",serif;background:lightgrey'>Appendix V</span></a><span style='font-family:"Times New Roman",serif;background:lightgrey'>.</span><span style='font-family:"Times New Roman",serif'> By reporting side effects you can help provide more information on the safety of this medicine.</span></p><p class="MsoNormal" style="margin-top:0in;margin-right:-1.45pt;margin-bottom: 0in;margin-left:0in;line-height:normal"></p><p class="MsoNormal" style="margin-top:0in;margin-right:-1.45pt;margin-bottom: 0in;margin-left:0in;line-height:normal"></p>
			</div>
		</text>
		
    	    
		
</section>
			    
    	    
		
</section>
			    
    	    
				
			    
						
		               
<section>
			<title value="5.       How to store Zynteglo"/>
				<code>
					<coding>
						<system value="http://spor.ema.europa.eu/v1/example-sections"/>
						<code value="${document[n].section[n].subsection[n].typeCode}"/>
						<display value="${document[n].section[n].subsection[n].typeDisplay}"/>
					</coding>
				</code>
		<text>
			<status value="additional"/>
			<div xmlns="http://www.w3.org/1999/xhtml">
		    <p class="MsoNormal" style="margin-top:0in;margin-right:-.1pt;margin-bottom:0in; margin-left:0in;line-height:normal"></p><p class="MsoNormal" style="margin-top:0in;margin-right:-.1pt;margin-bottom:0in; margin-left:0in;line-height:normal"><span style='font-family:"Times New Roman",serif'>This information is intended for doctors only.</span></p><p class="MsoNormal" style="margin-top:0in;margin-right:-.1pt;margin-bottom:0in; margin-left:0in;line-height:normal"></p><p class="MsoNormal" style="margin-top:0in;margin-right:-.1pt;margin-bottom:0in; margin-left:0in;line-height:normal"><span style='font-family:"Times New Roman",serif'>As this medicine will be given by a qualified doctor, they are responsible for the correct storage of the medicine before and during its use, as well as for its correct disposal. </span></p><p class="MsoNormal" style="margin-top:0in;margin-right:-.1pt;margin-bottom:0in; margin-left:0in;line-height:normal"></p><p class="MsoNormal" style="margin-top:0in;margin-right:-.1pt;margin-bottom:0in; margin-left:0in;line-height:normal"><span style='font-family:"Times New Roman",serif'>Keep this medicine out of the sight and reach of children. </span></p><p class="MsoNormal" style="margin-top:0in;margin-right:-.1pt;margin-bottom:0in; margin-left:0in;line-height:normal"></p><p class="MsoNormal" style="margin-top:0in;margin-right:-.1pt;margin-bottom:0in; margin-left:0in;line-height:normal"><span style='font-family:"Times New Roman",serif'>Do not use this medicine after the expiry date which is stated on the outer container label(s) and infusion bag label(s).</span></p><p class="MsoNormal" style="margin-top:0in;margin-right:-.1pt;margin-bottom:0in; margin-left:0in;line-height:normal"></p><p class="MsoNormal" style="margin-top:0in;margin-right:-.1pt;margin-bottom:0in; margin-left:0in;line-height:normal"><span style='font-family:"Times New Roman",serif'>Store at ≤-140°C for up to a year. Do not thaw the product until it is ready to be used. Once thawed store at room temperature (20°C‑25°C) and use within 4 hours.</span></p><p class="MsoNormal" style="margin-top:0in;margin-right:-.1pt;margin-bottom:0in; margin-left:0in;line-height:normal"></p><p class="MsoNormal" style="margin-top:0in;margin-right:-.1pt;margin-bottom:0in; margin-left:0in;line-height:normal"><span style='font-family:"Times New Roman",serif'>This medicine contains genetically-modified cells. Unused medicine must be disposed of in compliance with the local guidelines on handling human-derived material. </span></p><p class="MsoNormal" style="margin-top:0in;margin-right:-.1pt;margin-bottom:0in; margin-left:0in;line-height:normal"></p><p class="MsoNormal" style="margin-top:0in;margin-right:-.1pt;margin-bottom:0in; margin-left:0in;line-height:normal"></p>
			</div>
		</text>
		
    	    
		
</section>
			    
    	    
				
			    
						
		               
<section>
			<title value="6.       Contents of the pack and other information"/>
				<code>
					<coding>
						<system value="http://spor.ema.europa.eu/v1/example-sections"/>
						<code value="${document[n].section[n].subsection[n].typeCode}"/>
						<display value="${document[n].section[n].subsection[n].typeDisplay}"/>
					</coding>
				</code>
		<text>
			<status value="additional"/>
			<div xmlns="http://www.w3.org/1999/xhtml">
		    <p class="MsoNormal" style="margin-top:0in;margin-right:-.1pt;margin-bottom:0in; margin-left:0in;line-height:normal"></p>
			</div>
		</text>
		
    	    

			    
		               
<section>
			<title value="What Zynteglo contains "/>
				<code>
					<coding>
						<system value="http://spor.ema.europa.eu/v1/example-sections"/>
						<code value="${document[n].section[n].subsection[n].typeCode}"/>
						<display value="${document[n].section[n].subsection[n].typeDisplay}"/>
					</coding>
				</code>
		<text>
			<status value="additional"/>
			<div xmlns="http://www.w3.org/1999/xhtml">
		    <p class="MsoNormal" style="margin-top:0in;margin-right:-.1pt;margin-bottom:0in; margin-left:.25in;text-indent:-.25in;line-height:normal"><span style='font-family:"Times New Roman",serif'>-</span><span style='font-family:"Times New Roman",serif'>The active substance of Zynteglo consists of your own blood stem cells that contain functional copies of the beta-globin gene that can be measured in your blood. The concentration is 1.2‑20 × 10<sup>6</sup> CD34<sup>+</sup> cells (blood stem cells) per millilitre.</span></p><p class="MsoNormal" style="margin-top:0in;margin-right:-.1pt;margin-bottom:0in; margin-left:.25in;text-indent:-.25in;line-height:normal"><span style='font-family:"Times New Roman",serif'>-</span><span style='font-family:"Times New Roman",serif'>The other ingredients are a solution used to preserve frozen cells and sodium chloride. See section 2, Sodium content.</span></p><p class="MsoNormal" style="margin-top:0in;margin-right:-.1pt;margin-bottom:0in; margin-left:0in;line-height:normal"></p>
			</div>
		</text>
		
    	    
		
</section>
			    
    	    

			    
		               
<section>
			<title value="What Zynteglo looks like and contents of the pack"/>
				<code>
					<coding>
						<system value="http://spor.ema.europa.eu/v1/example-sections"/>
						<code value="${document[n].section[n].subsection[n].typeCode}"/>
						<display value="${document[n].section[n].subsection[n].typeDisplay}"/>
					</coding>
				</code>
		<text>
			<status value="additional"/>
			<div xmlns="http://www.w3.org/1999/xhtml">
		    <p class="MsoNormal" style="margin-bottom:0in;line-height:normal"><a name="_Hlk511315491"><span style='font-family:"Times New Roman",serif'>Zynteglo is a clear to slightly cloudy, colourless to yellow or pink dispersion of cells</span></a><span style='font-family:"Times New Roman",serif'> that is supplied in one or more clear infusion bags, each packed in a transparent pouch inside a closed metal container. </span></p><p class="MsoNormal" style="margin-bottom:0in;line-height:normal"></p><p class="MsoNormal" style="margin-bottom:0in;line-height:normal"><span style='font-family:"Times New Roman",serif'>Your name and date of birth, as well as coded information identifying you as the patient, are printed onto each infusion bag and each metal container.</span></p><p class="MsoNormal" style="margin-bottom:0in;line-height:normal"></p>
			</div>
		</text>
		
    	    
		
</section>
			    
    	    

			    
		               
<section>
			<title value="Marketing Authorisation Holder and Manufacturer"/>
				<code>
					<coding>
						<system value="http://spor.ema.europa.eu/v1/example-sections"/>
						<code value="${document[n].section[n].subsection[n].typeCode}"/>
						<display value="${document[n].section[n].subsection[n].typeDisplay}"/>
					</coding>
				</code>
		<text>
			<status value="additional"/>
			<div xmlns="http://www.w3.org/1999/xhtml">
		    <p class="MsoNormal" style="margin-bottom:0in;line-height:normal"><span style='font-family:"Times New Roman",serif'>bluebird bio (Netherlands) B.V. </span></p><p class="MsoNormal" style="margin-bottom:0in;line-height:normal"><span lang="NL" style='font-family:"Times New Roman",serif'>Stadsplateau 7 </span></p><p class="MsoNormal" style="margin-bottom:0in;line-height:normal"><span lang="NL" style='font-family:"Times New Roman",serif'>WTC Utrecht </span></p><p class="MsoNormal" style="margin-bottom:0in;line-height:normal"><span lang="NL" style='font-family:"Times New Roman",serif'>3521AZ Utrecht </span></p><p class="MsoNormal" style="margin-bottom:0in;line-height:normal"><span lang="NL" style='font-family:"Times New Roman",serif'>The Netherlands </span></p><p class="MsoNormal" style="margin-bottom:0in;line-height:normal"><a href="mailto:medinfo@bluebirdbio.com"><span lang="PT" style='font-family:"Times New Roman",serif'>medinfo@bluebirdbio.com</span></a></p><p class="MsoNormal" style="margin-bottom:0in;line-height:normal"></p><p class="MsoNormal" style="margin-top:0in;margin-right:-.1pt;margin-bottom:0in; margin-left:0in;line-height:normal"><b><span lang="PT" style='font-family:"Times New Roman",serif'>Manufacturer</span></b></p><p class="MsoNormal" style="margin-bottom:0in;line-height:normal"><span lang="PT" style='font-family:"Times New Roman",serif'>Minaris Regenerative Medicine GmbH </span></p><p class="MsoNormal" style="margin-bottom:0in;line-height:normal"><span style='font-family:"Times New Roman",serif'>Haidgraben 5</span></p><p class="MsoNormal" style="margin-bottom:0in;line-height:normal"><span style='font-family:"Times New Roman",serif'>85521 Ottobrunn</span></p><p class="MsoNormal" style="margin-bottom:0in;line-height:normal"><span style='font-family:"Times New Roman",serif'>Germany</span></p><p class="MsoNormal" style="margin-top:0in;margin-right:-.1pt;margin-bottom:0in; margin-left:0in;line-height:normal"></p>
			</div>
		</text>
		
    	    
		
</section>
			    
    	    

			    
		               
<section>
			<title value="For any information about this medicine, please contact the local representative of the Marketing Authorisation Holder:"/>
				<code>
					<coding>
						<system value="http://spor.ema.europa.eu/v1/example-sections"/>
						<code value="${document[n].section[n].subsection[n].typeCode}"/>
						<display value="${document[n].section[n].subsection[n].typeDisplay}"/>
					</coding>
				</code>
		<text>
			<status value="additional"/>
			<div xmlns="http://www.w3.org/1999/xhtml">
		    <p class="MsoNormal" style="margin-bottom:0in;line-height:normal"></p><table border="0" cellpadding="0" cellspacing="0" class="MsoNormalTable" style="margin-left:-1.7pt;border-collapse:collapse" width="624"> <tr> <td style="width:233.9pt;padding:0in 5.4pt 0in 5.4pt" valign="top" width="312"> <p class="MsoNormal" style="margin-bottom:0in;line-height:normal"><a name="_Hlk1050692"><b><span lang="DE" style='font-family:"Times New Roman",serif'>Deutschland</span></b></a></p> <p class="MsoNormal" style="margin-bottom:0in;line-height:normal"><span lang="DE" style='font-family:"Times New Roman",serif'>bluebird bio (Germany)   GmbH</span></p> <p class="MsoNormal" style="margin-bottom:0in;line-height:normal"><span lang="DE" style='font-family:"Times New Roman",serif'>Tel: +49 (0) 893 803 7456   (0800 181 0702)</span></p> <p class="MsoNormal" style="margin-bottom:0in;line-height:normal"></p> </td> <td style="width:233.9pt;padding:0in 5.4pt 0in 5.4pt" valign="top" width="312"> <p class="MsoNormal" style="margin-bottom:0in;line-height:normal"><b><span lang="ES" style='font-family:"Times New Roman",serif'>Italia</span></b></p> <p class="MsoNormal" style="margin-bottom:0in;line-height:normal"><span lang="ES" style='font-family:"Times New Roman",serif'>bluebird bio (Italy)   S.r.l.</span></p> <p class="MsoNormal" style="margin-bottom:0in;line-height:normal"><span lang="DE" style='font-family:"Times New Roman",serif'>Tel: </span><span style='font-family:"Times New Roman",serif'>+39 029 475 9755 (800 728 026)</span></p> <p class="MsoNormal" style="margin-bottom:0in;line-height:normal"></p> </td> </tr> <tr> <td style="width:233.9pt;padding:0in 5.4pt 0in 5.4pt" valign="top" width="312"> <p class="MsoNormal" style="margin-bottom:0in;line-height:normal"><b><span style='font-family:"Times New Roman",serif'>France</span></b></p> <p class="MsoNormal" style="margin-bottom:0in;line-height:normal"><span style='font-family:"Times New Roman",serif'>bluebird bio (France) SAS</span></p> <p class="MsoNormal" style="margin-bottom:0in;line-height:normal;text-autospace:   none"><span style='font-family:"Times New Roman",serif'>Tél: +33 (0)1 85 14   97 89 (0800 914 510)</span></p> <p class="MsoNormal" style="margin-bottom:0in;line-height:normal;text-autospace:   none"></p> </td> <td style="width:233.9pt;padding:0in 5.4pt 0in 5.4pt" valign="top" width="312"> <p class="MsoNormal" style="margin-bottom:0in;line-height:normal"><b><span lang="NL" style='font-family:"Times New Roman",serif'>Nederland</span></b></p> <p class="MsoNormal" style="margin-bottom:0in;line-height:normal"><span lang="NL" style='font-family:"Times New Roman",serif'>bluebird bio   (Netherlands) B.V.</span></p> <p class="MsoNormal" style="margin-bottom:0in;line-height:normal"><span style='font-family:"Times New Roman",serif'>Tel: +</span><span lang="DE" style='font-family:"Times New Roman",serif'>31 (0) 303 100 450</span></p> </td> </tr> <tr> <td style="width:233.9pt;padding:0in 5.4pt 0in 5.4pt" valign="top" width="312"> <p class="MsoNormal" style="margin-bottom:0in;line-height:normal"><b><span style='font-family:"Times New Roman",serif'>België/Belgique/Belgien,   България, Česká   republika, Danmark, Eesti, Ελλάδα, España, </span></b><b><span style='font-family:"Times New Roman",serif'>Hrvatska, Ireland, Ísland,   Κύπρος, Latvija, Lietuva, Luxembourg/Luxemburg,   Magyarország, Malta, Norge, Österreich, Polska, Portugal, România, Slovenija,   Slovenská republika, Suomi/Finland, Sverige</span></b></p> <p class="MsoNormal" style="margin-bottom:0in;line-height:normal"><span style='font-family:"Times New Roman",serif'>bluebird bio (Netherlands) B.V.</span></p> <p class="MsoNormal" style="margin-bottom:0in;line-height:normal"><span style='font-family:"Times New Roman",serif'>Tél/Tel/Teл/Tlf/Τηλ/Sími/Puh:   </span></p> <p class="MsoNormal" style="margin-bottom:0in;line-height:normal"><span style='font-family:"Times New Roman",serif'>+31 (0) </span><span lang="DE" style='font-family:"Times New Roman",serif'>303 100 450</span></p> <p class="MsoNormal" style="margin-bottom:0in;line-height:normal"><a href="mailto:medinfo@bluebirdbio.com"><span lang="DE" style='font-family:"Times New Roman",serif'>medinfo@bluebirdbio.com</span></a></p> <p class="MsoNormal" style="margin-bottom:0in;line-height:normal"></p> </td> <td style="width:233.9pt;padding:0in 5.4pt 0in 5.4pt" valign="top" width="312"> <p class="MsoNormal" style="margin-bottom:0in;line-height:normal"><b><span style='font-family:"Times New Roman",serif'>United Kingdom</span></b></p> <p class="MsoNormal" style="margin-bottom:0in;line-height:normal"><span style='font-family:"Times New Roman",serif'>bluebird bio (UK) Limited</span></p> <p class="MsoNormal" style="margin-bottom:0in;line-height:normal"><span style='font-family:"Times New Roman",serif'>Tel: +44 (0) 207 660 0754</span></p> <p class="MsoNormal" style="margin-bottom:0in;line-height:normal"><span style='font-family:"Times New Roman",serif'> (0800-069-8046)</span></p> <p class="MsoNormal" style="margin-bottom:0in;line-height:normal"></p> <p class="MsoNormal" style="margin-bottom:0in;line-height:normal"></p> </td> </tr> </table><p class="MsoNormal" style="margin-top:0in;margin-right:-.1pt;margin-bottom:0in; margin-left:0in;line-height:normal"><b><span style='font-family:"Times New Roman",serif'>This leaflet was last revised in &lt;</span></b><span style='font-family:"Times New Roman",serif'>{<b>MM/YYYY</b>}&gt;</span></p><p class="MsoNormal" style="margin-top:0in;margin-right:-.1pt;margin-bottom:0in; margin-left:0in;line-height:normal"><span style='font-family:"Times New Roman",serif'>This medicine has been given ‘conditional approval’. This means that there is more evidence to come about this medicine. </span></p><p class="MsoNormal" style="margin-top:0in;margin-right:-.1pt;margin-bottom:0in; margin-left:0in;line-height:normal"><span style='font-family:"Times New Roman",serif'>The European Medicines Agency will review new information on this medicine at least every year and this leaflet will be updated as necessary.</span></p><p class="MsoNormal" style="margin-top:0in;margin-right:-.1pt;margin-bottom:0in; margin-left:0in;line-height:normal"></p><p class="MsoNormal" style="margin-top:0in;margin-right:-.1pt;margin-bottom:0in; margin-left:0in;line-height:normal"><span lang="EN-GB" style='font-family:"Times New Roman",serif'>Detailed information on this medicine is available on the European Medicines Agency web site: </span><u><span lang="EN-GB" style='font-family:"Times New Roman",serif; color:blue'>http://www.ema.europa.eu</span></u><span lang="EN-GB" style='font-family:"Times New Roman",serif'>&lt;, and on the website of {name of MS Agency (link)}&gt;.</span></p><p class="MsoNormal" style="margin-top:0in;margin-right:-.1pt;margin-bottom:0in; margin-left:0in;line-height:normal"></p><p class="MsoNormal" style="margin-top:0in;margin-right:-.1pt;margin-bottom:0in; margin-left:0in;line-height:normal"><span style='font-family:"Times New Roman",serif'>This leaflet is available in all EU/EEA languages on the European Medicines Agency website.</span></p><p class="MsoNormal" style="margin-top:0in;margin-right:-.1pt;margin-bottom:0in; margin-left:0in;line-height:normal"></p><p class="MsoNormal" style="margin-top:0in;margin-right:-.1pt;margin-bottom:0in; margin-left:0in;line-height:normal"><span style='font-family:"Times New Roman",serif'>-----------------------------------------------------------------------------------------------------------------</span></p><p class="MsoNormal" style="margin-top:0in;margin-right:-1.4pt;margin-bottom: 0in;margin-left:0in;line-height:normal"></p>
			</div>
		</text>
		
    	    
		
</section>
			    
    	    
		
</section>
			    
    	    
				
			    
						
		               
<section>
			<title value="The following information is intended for healthcare professionals only: "/>
				<code>
					<coding>
						<system value="http://spor.ema.europa.eu/v1/example-sections"/>
						<code value="${document[n].section[n].subsection[n].typeCode}"/>
						<display value="${document[n].section[n].subsection[n].typeDisplay}"/>
					</coding>
				</code>
		<text>
			<status value="additional"/>
			<div xmlns="http://www.w3.org/1999/xhtml">
		    <p class="MsoNormal" style="margin-top:0in;margin-right:-1.4pt;margin-bottom: 0in;margin-left:-2.0pt;line-height:normal;page-break-after:avoid"></p><p class="MsoNormal" style="margin-bottom:0in;line-height:normal"><span style='font-family:"Times New Roman",serif'>Zynteglo is shipped from the manufacturing facility to the infusion centre storage facility in a cryoshipper, which may contain multiple metal cassettes intended for a single patient. Each metal cassette contains one infusion bag with Zynteglo. A patient may have multiple infusion bags. The infusion bag(s) must be kept inside the metal cassette(s) until ready to thaw and use.</span></p><p class="MsoNormal" style="margin-bottom:0in;line-height:normal"></p><p class="MsoNormal" style="margin-bottom:0in;line-height:normal"><span style='font-family:"Times New Roman",serif'>Confirm that Zynteglo is printed on the infusion bag(s). Confirm that patient identity matches the unique patient information located on the infusion bag(s) and metal cassette(s) prior to infusion.</span></p><p class="MsoNormal" style="margin-bottom:0in;line-height:normal"><span style='font-family:"Times New Roman",serif'>Account for all infusion bags and confirm each infusion bag of Zynteglo is within the expiry date using the accompanying Lot Information Sheet. </span></p><p class="MsoNormal" style="margin-bottom:0in;line-height:normal"></p><p class="MsoNormal" style="margin-bottom:0in;line-height:normal"><span style='font-family:"Times New Roman",serif'>Inspect each infusion bag for any breaches of integrity before thawing and infusion. If an infusion bag is compromised, follow the local guidelines on handling human-derived material and contact bluebird bio immediately.</span></p><p class="MsoNormal" style="margin-bottom:0in;line-height:normal"></p><p class="MsoNormal" style="margin-bottom:0in;line-height:normal"><span style='font-family:"Times New Roman",serif'>Zynteglo is intended solely for autologous use. </span></p><p class="MsoNormal" style="margin-bottom:0in;line-height:normal"></p><p class="MsoNormal" style="margin-bottom:0in;line-height:normal"><span style='font-family:"Times New Roman",serif'>After carefully removing the outer metal container, thaw each infusion bag at 37°C in a water bath or dry bath for approximately 2‑4 minutes. Do not overthaw the medicinal product. Do not leave the medicinal product unattended and do not submerge the infusion ports if thawed in a water bath. After thaw, mix the medicinal product gently by massaging the infusion bag until all of the contents are uniform. Expose the sterile port on the infusion bag by tearing off the protective wrap covering the port. Access the infusion bag and infuse per the administration site’s standard procedures for administration of cell therapy products. Do not use an in-line blood filter or an infusion pump. Do not sample, alter, or irradiate the medicinal product. </span></p><p class="MsoNormal" style="margin-bottom:0in;line-height:normal"></p><p class="MsoNormal" style="margin-bottom:0in;line-height:normal"><span style='font-family:"Times New Roman",serif'>Administer each infusion bag via intravenous infusion over a period of less than 30 minutes. If more than one infusion bag is provided, administer each infusion bag completely before proceeding to thaw and infuse the next bag. </span></p><p class="MsoNormal" style="margin-bottom:0in;line-height:normal"></p><p class="MsoNormal" style="margin-bottom:0in;line-height:normal"><span style='font-family:"Times New Roman",serif'>Zynteglo must not be re‑frozen. Infuse as soon as possible and no more than 4 hours after thawing. </span></p><p class="MsoNormal" style="margin-bottom:0in;line-height:normal"></p><p class="MsoNormal" style="margin-bottom:0in;line-height:normal"><span style='font-family:"Times New Roman",serif'>Flush all Zynteglo remaining in the infusion bag and any associated tubing with at least 50 mL of 0.9% sodium chloride solution to ensure as many cells as possible are infused into the patient.</span></p><p class="MsoNormal" style="margin-bottom:0in;line-height:normal"></p><p class="MsoNormal" style="margin-bottom:0in;line-height:normal"><span style='font-family:"Times New Roman",serif'>This medicinal product contains genetically-modified cells. Local guidelines on handling and waste of human-derived material applicable for such products should be followed.</span></p><p class="MsoNormal" style="margin-bottom:0in;line-height:normal"></p><p class="MsoNormal" style="margin-bottom:0in;line-height:normal"><span style='font-family:"Times New Roman",serif'>Healthcare professionals handling Zynteglo should take standard precautions (wearing gloves, protective clothing and eye protection) to avoid potential transmission of infectious diseases.</span></p><p class="MsoNormal" style="margin-bottom:0in;line-height:normal"></p><p class="MsoNormal" style="margin-bottom:0in;line-height:normal"><span style='font-family:"Times New Roman",serif'>Work surfaces and material which have potentially been in contact with Zynteglo must be decontaminated with a viricidal disinfectant according to the manufacturer's instructions. </span></p><p class="MsoNormal" style="margin-bottom:0in;line-height:normal"></p>
			</div>
		</text>
		
    	    
		
</section>
			    
    	    
		
	
</section>
							<!-- sections can repeat as necessary -->
						</Composition>
					</resource>
				</entry>
				
			</Bundle>
		</resource>
	</entry>
</Bundle>