<?xml version="1.0" encoding="UTF-8"?>
<!-- This is a template for a FHIR resource, and needs items (marked with "${}") replacing to make a real instance -->
<!-- The resulting instance is a Bundle of Bundles, each of which is a document (having a Composition, and supporting resources) -->
<!-- 2020-02-22 -->
<!-- This is for FHIR version R5 Preview 2 (May 2020) -->
<Bundle xmlns="http://hl7.org/fhir">
	<type value="collection"/>
	<!-- Repeat at this level per document -->
	<entry>
		<fullUrl value="urn:uuid:fff587ec-dfa6-4590-809a-e4fc7afc17c7"/>
		<!-- Top level of each document is a also FHIR Bundle, of type "document"
		 see http://hl7.org/fhir/documents.html, http://hl7.org/fhir/bundle.html
	 	 All the other resources for this document are within this. -->
		<resource>
            <Bundle>
            	<!-- When PUTing, some servers mandate an id here to match the existing id -->
            	<id value="fb9348b0-aa2d-416b-a153-4a2961e56f3c"/>
				<!-- document bundles must have an identifier (bdl-9) -->
				<identifier>
					<!-- possibly different identifier types may be needed here -->
					<system value="http://ema.europa.eu/fhir/identifier/documentid"/>
					<value value="${instance.bundle[n].Identifier}"/>
				</identifier>
				<!-- fixed code -->
				<type value="document" /> 
            	<!-- document bundles must have a date (bdl-10) -->
            	<timestamp value="2021-05-19T18:53:51Z"/>
				<!-- a repeating set of entry elements, each with a FHIR resource inside -->
				<entry>
					<!-- fullUrl is mandatory for each entry in document Bundle. It is a random uuid. http://build.fhir.org/bundle.html#bundle-unique -->
					<fullUrl value="urn:uuid:12b067a7-7785-4c1a-96ad-70eeefb432e4"/>
					<resource>
						<!-- the first resource must be Composition (bdl-11) -->
						<!-- This is the overall document structure. -->
						<!-- see definition http://hl7.org/fhir/composition.html, and similar for other resources -->
                        <Composition>
                        	<!-- images if requied within html text of this document -->
							
							<contained>
                                <Binary>
                                	<id value="image0"/>
                                	<!-- example format -->
                                	<contentType value="image/png"/>
									<!-- data is base 64 encoded, actual bytes of the image png file -->
                                	<data value=""/>
								</Binary>
							</contained>
							<!-- this exension is necessary per image -->
                <extension url="http://ema.europa.eu/fhir/extension/dummyValidationReference">
                        		<valueReference>
                        			<reference value="#image0"/>
                        		</valueReference>
               </extension>
              
							<contained>
                                <Binary>
                                	<id value="image1"/>
                                	<!-- example format -->
                                	<contentType value="image/jpg"/>
									<!-- data is base 64 encoded, actual bytes of the image png file -->
                                	<data value=""/>
								</Binary>
							</contained>
							<!-- this exension is necessary per image -->
                <extension url="http://ema.europa.eu/fhir/extension/dummyValidationReference">
                        		<valueReference>
                        			<reference value="#image1"/>
                        		</valueReference>
               </extension>
              
              
              <contained>
                          <Binary>
                            <id value="stylesheet0"/>
                            <!-- example format -->
                            <contentType value="stylesheet/css"/>
                            <!-- data is base 64 encoded, actual bytes of the image png file -->
                            <data value=""/>
                          </Binary>
                        </contained>
                        <!-- this exension is necessary per image -->
                        <extension url="http://ema.europa.eu/fhir/extension/dummyValidationReference">
                          <valueReference>
                            <reference value="#stylesheet0"/>
                          </valueReference>
                        </extension>
              
              <status value="final"/>
							<!-- document type -->
							<type>
								<coding>
									<system value="http://spor.ema.europa.eu/v1/lists/100000155531"/>
									<code value="${document[n].documentTypeCode}"/>
									<display value="${document[n].documentTypeDisplay}"/>
								</coding>
							</type>
							<subject>
								<!-- links to the List resource in this bundle - local url format -->
								<reference value="[]"/> <!-- local url format -->
								<!--reference value="${instance.bundle[n].listUuid}"/--> <!-- uuid url format. Possible alternate format may be neeed -->
							</subject>
                        	<!-- mandatory date of the document -->
                        	<date value="2021-02-01"/>
							<author>
								<identifier>
									<system value="http://spor.ema.europa.eu/v1/locations" />
									<value value="" />
								</identifier>
							</author>
                        	<title value="${document[n].title}"/>
							<relatesTo>
								<code value="appends"/>
								<targetReference>
									<!-- reference to another Composition -->
									<reference value="${document[n].relatesTo}"/>
								</targetReference>
							</relatesTo>
							<!-- main sections of the document, to follow the QRD template -->
	               			
<section>
	
		
			<title value="SUMMARY OF PRODUCT CHARACTERISTICS"/>
				<code>
					<coding>
						<system value="http://spor.ema.europa.eu/v1/example-sections"/>
						<code value="${document[n].section[n].subsection[n].typeCode}"/>
						<display value="${document[n].section[n].subsection[n].typeDisplay}"/>
					</coding>
				</code>
		<text>
			<status value="additional"/>
			<div xmlns="http://www.w3.org/1999/xhtml">
		    <span style='font-size:11.0pt;font-family:"Times New Roman",serif'><br clear="all" style="page-break-before:always"/> </span><br clear="all" style="page-break-before:always"/><p class="MsoNormal" style="margin-bottom:0in;line-height:normal"></p><p class="C-BodyText" style="margin:0in;line-height:normal"><span lang="EN-GB" style="font-size:11.0pt"><img alt="BT_1000x858px" height="20" id="Picture 2" src="#image0" width="20"/></span><span style="font-size:11.0pt">This medicinal product is subject to additional monitoring. This will allow quick identification of new safety information. Healthcare professionals are asked to report any suspected adverse reactions. See section 4.8 for how to report adverse reactions.</span></p><p class="C-BodyText" style="margin:0in;line-height:normal"></p><p class="C-BodyText" style="margin:0in;line-height:normal"></p>
			</div>
		</text>
		
		
    	    
				
			    
						
		               
<section>
			<title value="1.       NAME OF THE MEDICINAL PRODUCT"/>
				<code>
					<coding>
						<system value="http://spor.ema.europa.eu/v1/example-sections"/>
						<code value="${document[n].section[n].subsection[n].typeCode}"/>
						<display value="${document[n].section[n].subsection[n].typeDisplay}"/>
					</coding>
				</code>
		<text>
			<status value="additional"/>
			<div xmlns="http://www.w3.org/1999/xhtml">
		    <p class="C-BodyText" style="margin:0in;line-height:normal"></p><p class="C-BodyText" style="margin:0in;line-height:normal"><span lang="FR" style="font-size:11.0pt">Zynteglo 1.220  10<sup>6</sup> cells/mL dispersion for infusion. </span></p><p class="C-BodyText" style="margin:0in;line-height:normal"></p><p class="C-BodyText" style="margin:0in;line-height:normal"></p>
			</div>
		</text>
		
    	    
		
</section>
			    
    	    
				
			    
						
		               
<section>
			<title value="2.       QUALITATIVE AND QUANTITATIVE COMPOSITION"/>
				<code>
					<coding>
						<system value="http://spor.ema.europa.eu/v1/example-sections"/>
						<code value="${document[n].section[n].subsection[n].typeCode}"/>
						<display value="${document[n].section[n].subsection[n].typeDisplay}"/>
					</coding>
				</code>
		<text>
			<status value="additional"/>
			<div xmlns="http://www.w3.org/1999/xhtml">
		    <p class="C-BodyText" style="margin:0in;line-height:normal"></p>
			</div>
		</text>
		
    	    

			    
		               
<section>
			<title value="2.1     General description"/>
				<code>
					<coding>
						<system value="http://spor.ema.europa.eu/v1/example-sections"/>
						<code value="${document[n].section[n].subsection[n].typeCode}"/>
						<display value="${document[n].section[n].subsection[n].typeDisplay}"/>
					</coding>
				</code>
		<text>
			<status value="additional"/>
			<div xmlns="http://www.w3.org/1999/xhtml">
		    <p class="C-BodyText" style="margin:0in;line-height:normal"></p><p class="C-BodyText" style="margin:0in;line-height:normal"><span lang="FR" style="font-size:11.0pt">Zynteglo (betibeglogene autotemcel) is a</span><span lang="FR" style="font-size:11.0pt"> genetically modified autologous CD34<sup>+ </sup>cell enriched population that contains haematopoietic stem cells (HSC) transduced with lentiviral vector (LVV) encoding the </span><span style="font-size:11.0pt"></span><sup><span lang="FR" style="font-size:11.0pt">AT87Q</span></sup><span lang="FR" style="font-size:11.0pt">globin gene.</span></p><p class="C-BodyText" style="margin:0in;line-height:normal"></p>
			</div>
		</text>
		
    	    
		
</section>
			    
    	    

			    
		               
<section>
			<title value="2.2     Qualitative and quantitative composition"/>
				<code>
					<coding>
						<system value="http://spor.ema.europa.eu/v1/example-sections"/>
						<code value="${document[n].section[n].subsection[n].typeCode}"/>
						<display value="${document[n].section[n].subsection[n].typeDisplay}"/>
					</coding>
				</code>
		<text>
			<status value="additional"/>
			<div xmlns="http://www.w3.org/1999/xhtml">
		    <p class="C-BodyText" style="margin:0in;line-height:normal"></p><p class="C-BodyText" style="margin:0in;line-height:normal"><span style="font-size:11.0pt">The finished product is composed of one or more infusion bags which contain a dispersion of <span style="color:black">1.220  </span>10<sup>6 </sup><span style="color:black">cells/mL </span>suspended in cryopreservative solution<span style="color:black">. </span>Each infusion bag contains approximately 20 mL of Zynteglo.</span></p><p class="C-BodyText" style="margin:0in;line-height:normal"></p><p class="C-BodyText" style="margin:0in;line-height:normal"><span style="font-size:11.0pt">The quantitative information regarding strength, CD34<sup>+</sup> cells, and dose for the medicinal product is provided in the Lot Information Sheet. The Lot Information Sheet is included inside the lid of the cryoshipper used to transport Zynteglo.  </span></p><p class="C-BodyText" style="margin:0in;line-height:normal"></p><p class="C-BodyText" style="margin:0in;line-height:normal"><u><span style="font-size:11.0pt">Excipient with known effect</span></u></p><p class="C-BodyText" style="margin:0in;line-height:normal"></p><p class="C-BodyText" style="margin:0in;line-height:normal"><span style="font-size:11.0pt">Each dose contains 3911564 mg sodium.</span></p><p class="C-BodyText" style="margin:0in;line-height:normal"></p><p class="C-BodyText" style="margin:0in;line-height:normal"><span style="font-size:11.0pt">For the full list of excipients, see section 6.1.</span></p><p class="C-BodyText" style="margin:0in;line-height:normal"></p><p class="C-BodyText" style="margin:0in;line-height:normal"></p>
			</div>
		</text>
		
    	    
		
</section>
			    
    	    
		
</section>
			    
    	    
				
			    
						
		               
<section>
			<title value="3.       PHARMACEUTICAL FORM"/>
				<code>
					<coding>
						<system value="http://spor.ema.europa.eu/v1/example-sections"/>
						<code value="${document[n].section[n].subsection[n].typeCode}"/>
						<display value="${document[n].section[n].subsection[n].typeDisplay}"/>
					</coding>
				</code>
		<text>
			<status value="additional"/>
			<div xmlns="http://www.w3.org/1999/xhtml">
		    <p class="C-BodyText" style="margin:0in;line-height:normal"></p><p class="C-BodyText" style="margin:0in;line-height:normal"><span style="font-size:11.0pt">Dispersion for infusion.</span></p><p class="C-BodyText" style="margin:0in;line-height:normal"></p><p class="C-BodyText" style="margin:0in;line-height:normal"><span style="font-size:11.0pt">A clear to slightly cloudy, colourless to yellow or pink dispersion.</span></p><p class="C-BodyText" style="margin:0in;line-height:normal"></p><p class="C-BodyText" style="margin:0in;line-height:normal"></p>
			</div>
		</text>
		
    	    
		
</section>
			    
    	    
				
			    
						
		               
<section>
			<title value="4.       CLINICAL PARTICULARS"/>
				<code>
					<coding>
						<system value="http://spor.ema.europa.eu/v1/example-sections"/>
						<code value="${document[n].section[n].subsection[n].typeCode}"/>
						<display value="${document[n].section[n].subsection[n].typeDisplay}"/>
					</coding>
				</code>
		<text>
			<status value="additional"/>
			<div xmlns="http://www.w3.org/1999/xhtml">
		    <p class="MsoNormal" style="margin-top:0in;margin-right:0in;margin-bottom:0in; margin-left:28.35pt;text-indent:-28.35pt;line-height:normal"></p>
			</div>
		</text>
		
    	    

			    
		               
<section>
			<title value="4.1     Therapeutic indication"/>
				<code>
					<coding>
						<system value="http://spor.ema.europa.eu/v1/example-sections"/>
						<code value="${document[n].section[n].subsection[n].typeCode}"/>
						<display value="${document[n].section[n].subsection[n].typeDisplay}"/>
					</coding>
				</code>
		<text>
			<status value="additional"/>
			<div xmlns="http://www.w3.org/1999/xhtml">
		    <p class="C-BodyText" style="margin:0in;line-height:normal"></p><p class="C-BodyText" style="margin:0in;line-height:normal"><a name="_Hlk500066939"><span style="font-size:11.0pt">Zynteglo is indicated for the treatment of patients 12 years and older with transfusiondependent thalassaemia (TDT) who do not have a <sup>0</sup>/<sup>0</sup> genotype, for whom haematopoietic stem cell (HSC) transplantation is appropriate but a human leukocyte antigen (HLA)matched related HSC donor is not available (see sections 4.4 and 5.1).</span></a></p><p class="C-BodyText" style="margin:0in;line-height:normal"></p>
			</div>
		</text>
		
    	    
		
</section>
			    
    	    

			    
		               
<section>
			<title value="4.2     Posology and method of administration"/>
				<code>
					<coding>
						<system value="http://spor.ema.europa.eu/v1/example-sections"/>
						<code value="${document[n].section[n].subsection[n].typeCode}"/>
						<display value="${document[n].section[n].subsection[n].typeDisplay}"/>
					</coding>
				</code>
		<text>
			<status value="additional"/>
			<div xmlns="http://www.w3.org/1999/xhtml">
		    <p class="MsoNormal" style="margin-bottom:0in;line-height:normal"></p><p class="C-BodyText" style="margin:0in;line-height:normal"><a name="_Hlk497649473"><span style="font-size:11.0pt">Zynteglo must be administered in a qualified treatment centre by a physician(s) with experience in HSC transplantation and in the treatment of patients with TDT. </span></a><a name="_Hlk511314218"></a></p><p class="C-BodyText" style="margin:0in;line-height:normal"></p><p class="C-BodyText" style="margin:0in;line-height:normal"><span style="font-size:11.0pt">Patients are expected to enrol in a registry and will be followed in the registry in order to better understand the long-term safety and efficacy of Zynteglo. </span></p><p class="C-BodyText" style="margin:0in;line-height:normal"><u><span style="font-size:11.0pt"></span></u></p><p class="C-BodyText" style="margin:0in;line-height:normal;page-break-after:avoid"><u><span style="font-size:11.0pt">Posology</span></u></p><p class="C-BodyText" style="margin:0in;line-height:normal;page-break-after:avoid"><u><span style="font-size:11.0pt"></span></u></p><p class="C-BodyText" style="margin:0in;line-height:normal"><span style="font-size:11.0pt">The minimum recommended dose of Zynteglo is 5.0  10<sup>6</sup> CD34<sup>+</sup> cells/kg. In clinical studies doses up to 20  10<sup>6</sup> CD34<sup>+</sup> cells/kg have been administered. The minimum recommended dose is the same for adults and adolescents 12 years of age and older.</span></p><p class="C-BodyText" style="margin:0in;line-height:normal"></p><p class="C-BodyText" style="margin:0in;line-height:normal"><span style="font-size:11.0pt">Zynteglo is intended for autologous use (see section 4.4) and should only be administered once.</span></p><p class="C-BodyText" style="margin:0in;line-height:normal"></p><p class="MsoNormal" style="margin-bottom:0in;line-height:normal"><i><span style='font-family:"Times New Roman",serif'>Mobilisation and apheresis</span></i></p><p class="C-BodyText" style="margin:0in;line-height:normal"></p><p class="C-BodyText" style="margin:0in;line-height:normal"><span style="font-size:11.0pt">Patients are required to undergo HSC mobilisation followed by apheresis to obtain CD34<sup>+</sup> stem cells which will be used for medicinal product manufacturing (see section 5.1 for a description of the mobilisation regimen used in clinical studies). </span></p><p class="C-BodyText" style="margin:0in;line-height:normal"></p><p class="C-BodyText" style="margin:0in;line-height:normal"><span style="font-size:11.0pt">The minimum target number of CD34<sup>+</sup> cells to be collected is 12  10<sup>6</sup> CD34<sup>+</sup> cells/kg. If the minimum dose of Zynteglo of 5.0  10<sup>6</sup> CD34<sup>+</sup> cells/kg is not met after initial medicinal product manufacturing, the patient may undergo one or more additional cycles of mobilisation and apheresis, separated by at least 14 days, in order to obtain more cells for additional manufacture.</span></p><p class="C-BodyText" style="margin:0in;line-height:normal"></p><p class="C-BodyText" style="margin:0in;line-height:normal"><span style="font-size:11.0pt">A back-up collection of CD34<sup>+</sup> stem cells of 1.5  10<sup>6</sup> CD34<sup>+</sup> cells/kg (if collected by apheresis) or &gt;1.0  10<sup>8</sup> TNC/kg (if collected by bone marrow harvest) is required. These cells must be collected from the patient and be cryopreserved prior to myeloablative conditioning and infusion with Zynteglo. The backup collection may be needed for rescue treatment if there is: 1) compromise of Zynteglo after initiation of myeloablative conditioning and before Zynteglo infusion, 2) primary engraftment failure, or 3) loss of engraftment after infusion with Zynteglo (see section 4.4). </span></p><p class="C-BodyText" style="margin:0in;line-height:normal"></p><p class="MsoNormal" style="margin-bottom:0in;line-height:normal"><i><span style='font-family:"Times New Roman",serif'>Pre-treatment conditioning </span></i></p><p class="C-BodyText" style="margin:0in;line-height:normal"></p><p class="C-BodyText" style="margin:0in;line-height:normal"><span style="font-size:11.0pt">The treating physician should confirm that HSC transplantation is appropriate for the patient before myeloablative conditioning is initiated (see section 4.4). </span></p><p class="C-BodyText" style="margin:0in;line-height:normal"></p><p class="C-BodyText" style="margin:0in;line-height:normal"><span style="font-size:11.0pt;color:black">Full myeloablative conditioning must be administered before infusion of Zynteglo (see section 5.1 for a description of the myeloablative regimen used in clinical studies). </span><span style="font-size:11.0pt">It is recommended that patients maintain haemoglobin (Hb) 11 g/dL for at least 30 days prior to mobilisation and during myeloablative conditioning. Iron chelation should be stopped at least 7 days prior to myeloablative conditioning. Prophylaxis for hepatic venoocclusive disease (VOD) is recommended. Prophylaxis for seizures should be considered (see section 5.1 for a description of the prophylaxis regimen used in clinical studies).</span></p><p class="C-BodyText" style="margin:0in;line-height:normal"></p><p class="C-BodyText" style="margin:0in;line-height:normal"><span style="font-size:11.0pt">Myeloablative conditioning should not begin until the complete set of infusion bag(s) constituting the dose of Zynteglo has been received and stored at the administration site, and the availability of the back-up collection is confirmed. </span></p><p class="C-BodyText" style="margin:0in;line-height:normal"></p><p class="MsoNormal" style="margin-bottom:0in;line-height:normal"><i><span style='font-family:"Times New Roman",serif'>Zynteglo administration</span></i></p><p class="C-BodyText" style="margin:0in;line-height:normal"></p><p class="C-BodyText" style="margin:0in;line-height:normal"><span style="font-size:11.0pt">See Method of Administration below and section 6.6 for details on Zynteglo administration and handling.</span></p><p class="C-BodyText" style="margin:0in;line-height:normal"></p><p class="MsoNormal" style="margin-bottom:0in;line-height:normal"><i><span style='font-family:"Times New Roman",serif'>After Zynteglo administration</span></i></p><p class="C-BodyText" style="margin:0in;line-height:normal"></p><p class="C-BodyText" style="margin:0in;line-height:normal"><span style="font-size:11.0pt">Any blood products required within the first 3 months after Zynteglo infusion should be irradiated. </span></p><p class="C-BodyText" style="margin:0in;line-height:normal"></p><p class="C-BodyText" style="margin:0in;line-height:normal"><span style="font-size:11.0pt">Restarting iron chelation after Zynteglo infusion may be necessary and should be based on clinical practice (see sections 4.5 and 5.1). Phlebotomy can be used in lieu of iron chelation, when appropriate.</span></p><p class="C-BodyText" style="margin:0in;line-height:normal"></p><p class="C-BodyText" style="margin:0in;line-height:normal;page-break-after:avoid"><u><span style="font-size:11.0pt">Special populations</span></u></p><p class="C-BodyText" style="margin:0in;line-height:normal;page-break-after:avoid"><i><u><span style="font-size:11.0pt"></span></u></i></p><p class="C-BodyText" style="margin:0in;line-height:normal;page-break-after:avoid"><i><span style="font-size:11.0pt">Elderly</span></i></p><p class="C-BodyText" style="margin:0in;line-height:normal"><span style="font-size:11.0pt">Zynteglo has not been studied in patients &gt;65 years of age. HSC transplantation must be appropriate for a patient with TDT to be treated with Zynteglo (see section 4.4). No dose adjustment is required.</span></p><p class="C-BodyText" style="margin:0in;line-height:normal"></p><p class="C-BodyText" style="margin:0in;line-height:normal"><i><span style="font-size:11.0pt">Renal impairment</span></i></p><p class="C-BodyText" style="margin:0in;line-height:normal"><span style="font-size:11.0pt">Zynteglo has not been studied in patients with renal impairment. Patients should be assessed for renal impairment defined as creatinine clearance 70 mL/min/1.73 m<sup>2</sup> to ensure HSC transplantation is appropriate. No dose adjustment is required.</span></p><p class="C-BodyText" style="margin:0in;line-height:normal"></p><p class="C-BodyText" style="margin:0in;line-height:normal"><i><span style="font-size:11.0pt">Hepatic impairment</span></i></p><p class="C-BodyText" style="margin:0in;line-height:normal"><span style="font-size:11.0pt">Zynteglo has not been studied in patients with hepatic impairment. Patients should be assessed for hepatic impairment to ensure HSC transplantation is appropriate (see section 4.4.). No dose adjustment is required.</span></p><p class="C-BodyText" style="margin:0in;line-height:normal"></p><p class="C-BodyText" style="margin:0in;line-height:normal"><i><span style="font-size:11.0pt">Paediatric population</span></i></p><p class="C-BodyText" style="margin:0in;line-height:normal"><span style="font-size:11.0pt">The safety and efficacy of Zynteglo in children &lt;12 years of age have not yet been established. </span></p><p class="C-BodyText" style="margin:0in;line-height:normal"></p><p class="C-BodyText" style="margin:0in;line-height:normal"><i><span style="font-size:11.0pt">Patients seropositive for human immunodeficiency virus (HIV) or human Tlymphotropic virus (HTLV)</span></i></p><p class="C-BodyText" style="margin:0in;line-height:normal"><span style="font-size:11.0pt">Zynteglo has not been studied in patients with HIV1, HIV2, HTLV1, or HTLV2. A negative serology test for HIV is necessary to ensure acceptance of apheresis material for Zynteglo manufacturing. Apheresis material from patients with a positive test for HIV will not be accepted for Zynteglo manufacturing. </span></p><p class="C-BodyText" style="margin:0in;line-height:normal"></p><p class="C-BodyText" style="margin:0in;line-height:normal"><u><span style="font-size:11.0pt">Method of administration </span></u></p><p class="C-BodyText" style="margin:0in;line-height:normal"><i><u><span style="font-size:11.0pt"></span></u></i></p><p class="C-BodyText" style="margin:0in;line-height:normal"><span style="font-size:11.0pt">Zynteglo is for intravenous use only (see section 6.6 for full details on the administration process).</span></p><p class="C-BodyText" style="margin:0in;line-height:normal"></p><p class="C-BodyText" style="margin:0in;line-height:normal"><span style="font-size:11.0pt">After completion of the 4day course of myeloablative conditioning, there must be a minimum of 48 hours of washout before Zynteglo infusion. </span></p><p class="C-BodyText" style="margin:0in;line-height:normal"></p><p class="C-BodyText" style="margin:0in;line-height:normal"><span style="font-size:11.0pt">Before infusion, it must be confirmed that the patients identity matches the unique patient information on the Zynteglo infusion bag(s). The total number of infusion bags to be administered should also be confirmed with the Lot Information Sheet (see section 4.4).</span></p><p class="C-BodyText" style="margin:0in;line-height:normal"></p><p class="C-BodyText" style="margin:0in;line-height:normal"><span style="font-size:11.0pt">Zynteglo infusion should be completed as soon as possible and no more than 4 hours after thawing. Each infusion bag should be administered in less than 30 minutes. In the event that more than one infusion bag is provided, all infusion bags must be administered. The entire volume of each infusion bag should be infused. </span></p><p class="C-BodyText" style="margin:0in;line-height:normal"></p><p class="C-BodyText" style="margin:0in;line-height:normal"><span style="font-size:11.0pt">Standard procedures for patient management after HSC transplantation should be followed after Zynteglo infusion.</span></p><p class="C-BodyText" style="margin:0in;line-height:normal"></p>
			</div>
		</text>
		
    	    
		
</section>
			    
    	    

			    
		               
<section>
			<title value="4.3     Contraindications"/>
				<code>
					<coding>
						<system value="http://spor.ema.europa.eu/v1/example-sections"/>
						<code value="${document[n].section[n].subsection[n].typeCode}"/>
						<display value="${document[n].section[n].subsection[n].typeDisplay}"/>
					</coding>
				</code>
		<text>
			<status value="additional"/>
			<div xmlns="http://www.w3.org/1999/xhtml">
		    <p class="C-BodyText" style="margin:0in;line-height:normal"></p><p class="C-BodyText" style="margin:0in;line-height:normal"><span style="font-size:11.0pt">Hypersensitivity to the active substance or to any of the excipients listed in section 6.1.</span></p><p class="C-BodyText" style="margin:0in;line-height:normal"></p><p class="C-BodyText" style="margin:0in;line-height:normal"><span style="font-size:11.0pt">Pregnancy and breast-feeding (see section 4.6).</span></p><p class="C-BodyText" style="margin:0in;line-height:normal"></p><p class="C-BodyText" style="margin:0in;line-height:normal"><span style="font-size:11.0pt">Previous treatment with HSC gene therapy.</span></p><p class="C-BodyText" style="margin:0in;line-height:normal"></p><p class="C-BodyText" style="margin:0in;line-height:normal"><span style="font-size:11.0pt">Contraindications to the mobilisation agents and the myeloablative conditioning agent must be considered.</span></p><p class="C-BodyText" style="margin:0in;line-height:normal"></p>
			</div>
		</text>
		
    	    
		
</section>
			    
    	    

			    
		               
<section>
			<title value="4.4     Special warnings and precautions for use"/>
				<code>
					<coding>
						<system value="http://spor.ema.europa.eu/v1/example-sections"/>
						<code value="${document[n].section[n].subsection[n].typeCode}"/>
						<display value="${document[n].section[n].subsection[n].typeDisplay}"/>
					</coding>
				</code>
		<text>
			<status value="additional"/>
			<div xmlns="http://www.w3.org/1999/xhtml">
		    <p class="MsoNormal" style="margin-bottom:0in;line-height:normal"></p><p class="MsoNormal" style="margin-bottom:0in;line-height:normal"><u><span style='font-family:"Times New Roman",serif'>Traceability</span></u></p><p class="MsoNormal" style="margin-bottom:0in;line-height:normal"><u><span style='font-family:"Times New Roman",serif'></span></u></p><p class="C-BodyText" style="margin:0in;line-height:normal"><span style="font-size:11.0pt">The traceability requirements of cell-based advanced therapy medicinal products must apply. To ensure traceability the name of the product, the batch number and the name of the treated patient should be kept for a period of 30 years.</span></p><p class="C-BodyText" style="margin:0in;line-height:normal"><u><span style="font-size:11.0pt"></span></u></p><p class="C-BodyText" style="margin:0in;line-height:normal"><u><span style="font-size:11.0pt">General</span></u></p><p class="C-BodyText" style="margin:0in;line-height:normal"><u><span style="font-size:11.0pt"></span></u></p><p class="C-BodyText" style="margin:0in;line-height:normal"><span style="font-size:11.0pt">Warnings and precautions of the mobilisation agents and the myeloablative conditioning agent must be considered.</span></p><p class="C-BodyText" style="margin:0in;line-height:normal"></p><p class="C-BodyText" style="margin:0in;line-height:normal"><span style="font-size:11.0pt">Patients treated with Zynteglo should not donate blood, organs, tissues or cells for transplantation at any time in the future. This information is provided in the Patient Alert Card which must be given to the patient after treatment. </span></p><p class="C-BodyText" style="margin:0in;line-height:normal"></p><p class="C-BodyText" style="margin:0in;line-height:normal"><span style="font-size:11.0pt">Zynteglo is intended solely for autologous use and must not be administered to other patients. Confirm that the patients identity matches the unique patient identification information on the Zynteglo infusion bag(s) and metal cassette(s). Do not infuse Zynteglo if the information on the patient specific label on the infusion bag(s) or metal cassette(s) do not match the intended patient.</span></p><p class="C-BodyText" style="margin:0in;line-height:normal"></p><p class="C-BodyText" style="margin:0in;line-height:normal"><u><span style="font-size:11.0pt">Risks associated with TDT and iron overload</span></u></p><p class="C-BodyText" style="margin:0in;line-height:normal"><u><span style="font-size:11.0pt"></span></u></p><p class="MsoNormal" style="margin-bottom:0in;line-height:normal"><span style='font-family:"Times New Roman",serif'>Patients with TDT experience iron overload due to chronic red blood cell (RBC) transfusions that can lead to end organ damage. HSC transplantation with myeloablative conditioning is not appropriate for patients with TDT who have evidence of severely elevated iron in the heart i.e., patients with cardiac T2* &lt;10 msec by magnetic resonance imaging (MRI). MRI of the liver should be performed on all patients prior to myeloablative conditioning. It is recommended that patients with MRI results demonstrating liver iron content 15 mg/g undergo liver biopsy for further evaluation. If the liver biopsy demonstrates bridging fibrosis, cirrhosis, or active hepatitis, HSC transplantation with myeloablative conditioning is not appropriate.</span></p><p class="C-BodyText" style="margin:0in;line-height:normal"></p><p class="C-BodyText" style="margin:0in;line-height:normal"><u><span style="font-size:11.0pt">Risk of insertional oncogenesis</span></u></p><p class="C-BodyText" style="margin:0in;line-height:normal"><u><span style="font-size:11.0pt"></span></u></p><p class="C-BodyText" style="margin:0in;line-height:normal"><span style="font-size:11.0pt">No cases of leukaemia or lymphoma have been reported in clinical studies with Zynteglo in patients with TDT. There are no reports of LVVmediated insertional mutagenesis resulting in oncogenesis. Nevertheless, there is a theoretical risk of leukaemia or lymphoma after treatment with Zynteglo. </span></p><p class="C-BodyText" style="margin:0in;line-height:normal"></p><p class="C-BodyText" style="margin:0in;line-height:normal"><span style="font-size:11.0pt">Patients should be monitored annually for leukaemia or lymphoma (including with a complete blood count) for 15 years post treatment with Zynteglo. If leukaemia or lymphoma is detected in any patient who received Zynteglo, blood samples should be collected for integration site analysis.  </span></p><p class="C-BodyText" style="margin:0in;line-height:normal"></p><p class="C-BodyText" style="margin:0in;line-height:normal"><u><span style="font-size:11.0pt">Serological testing</span></u></p><p class="C-BodyText" style="margin:0in;line-height:normal"><u><span style="font-size:11.0pt"></span></u></p><p class="C-BodyText" style="margin:0in;line-height:normal"><span style="font-size:11.0pt">All patients should be tested for HIV-1/2 prior to mobilisation and apheresis to ensure acceptance of the apheresis material for Zynteglo manufacturing (see section 4.2). </span></p><p class="C-BodyText" style="margin:0in;line-height:normal"><u><span style="font-size:11.0pt"></span></u></p><p class="C-BodyText" style="margin:0in;line-height:normal"><u><span style="font-size:11.0pt">Interference with serology testing</span></u></p><p class="C-BodyText" style="margin:0in;line-height:normal"><u><span style="font-size:11.0pt"></span></u></p><p class="C-BodyText" style="margin:0in;line-height:normal"><span style="font-size:11.0pt">It is important to note that patients who have received Zynteglo are likely to test positive by polymerase chain reaction (PCR) assays for HIV due to LVV provirus insertion, resulting in a false positive test for HIV. Therefore, patients who have received Zynteglo should not be screened for HIV infection using a PCR-based assay. </span></p><p class="C-BodyText" style="margin:0in;line-height:normal"></p><p class="C-BodyText" style="margin:0in;line-height:normal;page-break-after:avoid"><u><span style="font-size:11.0pt">Engraftment failure as measured by neutrophil engraftment</span></u></p><p class="C-BodyText" style="margin:0in;line-height:normal;page-break-after:avoid"><u><span style="font-size:11.0pt"></span></u></p><p class="C-BodyText" style="margin:0in;line-height:normal"><span style="font-size:11.0pt">Treatment with Zynteglo involves the infusion and engraftment of CD34<sup>+</sup> HSCs that have been genetically modified <i>ex vivo</i> with a LVV. In clinical trials, no patients failed to engraft bone marrow, as measured by neutrophil engraftment (N=45). <span style="color:black">Neutrophil engraftment occurred on median (min, max) Day 21.0 (13, 38) after medicinal product infusion. </span>Failure of neutrophil engraftment is a short-term but potentially severe risk, defined as failure to achieve 3 consecutive absolute neutrophil counts (ANC) 500 cells/L obtained on different days by Day 43 after infusion of Zynteglo. Patients who experience neutrophil engraftment failure should receive rescue treatment with the back-up collection (see section 4.2).</span></p><p class="C-BodyText" style="margin:0in;line-height:normal"></p><p class="C-BodyText" style="margin:0in;line-height:normal"><u><span style="font-size:11.0pt">Delayed platelet engraftment</span></u></p><p class="C-BodyText" style="margin:0in;line-height:normal"></p><p class="C-BodyText" style="margin:0in;line-height:normal"><span style="font-size:11.0pt">Platelet engraftment is defined as 3 consecutive platelet values 20  10<sup>9</sup>/L obtained on different days after Zynteglo infusion, with no platelet transfusions administered for 7 days immediately preceding and during the evaluation period.<b></b>Patients with TDT treated with Zynteglo who achieved platelet engraftment had a median (min, max) platelet engraftment on Day 42.0 (19, 191) in clinical trials (N=45). No correlation was observed between incidence of bleeding and delayed platelet engraftment. Patients should be made aware of the risk of bleeding until platelet recovery has been achieved. Patients should be monitored for thrombocytopenia and bleeding according to standard guidelines. Platelet counts should be monitored according to medical judgment until platelet engraftment and platelet recovery are achieved. Blood cell count determination and other appropriate testing should be promptly considered whenever clinical symptoms suggestive of bleeding arise. </span></p><p class="C-BodyText" style="margin:0in;line-height:normal"><u><span style="font-size:11.0pt"></span></u></p><p class="C-BodyText" style="margin:0in;line-height:normal"><u><span style="font-size:11.0pt">Anti-retroviral and hydroxyurea use</span></u></p><p class="C-BodyText" style="margin:0in;line-height:normal"></p><p class="C-BodyText" style="margin:0in;line-height:normal"><span style="font-size:11.0pt">Patients should not take antiretroviral medications or hydroxyurea from at least one month prior to mobilisation until at least 7 days after Zynteglo infusion (see section 4.5). <a name="_Hlk3111940">If a patient requires antiretrovirals for HIV prophylaxis, Zynteglo treatment, including mobilisation and apheresis of CD34</a></span><sup>+</sup><span style="font-size:11.0pt"> cells through Zynteglo infusion, should be delayed until an HIV infection could be adequately ruled out according to local guidance for HIV testing.</span></p><p class="C-BodyText" style="margin:0in;line-height:normal"></p><p class="C-BodyText" style="margin:0in;line-height:normal"><u><span style="font-size:11.0pt">Sodium content</span></u></p><p class="C-BodyText" style="margin:0in;line-height:normal"><u><span style="font-size:11.0pt"></span></u></p><p class="C-BodyText" style="margin:0in;line-height:normal"><span style="font-size:11.0pt">This medicinal product contains 3911564 mg sodium per dose equivalent to 20 to 78% of the WHO recommended maximum daily intake of 2 g sodium for an adult. </span></p><p class="C-BodyText" style="margin:0in;line-height:normal"></p>
			</div>
		</text>
		
    	    
		
</section>
			    
    	    

			    
		               
<section>
			<title value="4.5     Interaction with other medicinal products and other forms of interaction"/>
				<code>
					<coding>
						<system value="http://spor.ema.europa.eu/v1/example-sections"/>
						<code value="${document[n].section[n].subsection[n].typeCode}"/>
						<display value="${document[n].section[n].subsection[n].typeDisplay}"/>
					</coding>
				</code>
		<text>
			<status value="additional"/>
			<div xmlns="http://www.w3.org/1999/xhtml">
		    <p class="MsoNormal" style="margin-bottom:0in;line-height:normal"></p><p class="C-BodyText" style="margin:0in;line-height:normal"><span style="font-size:11.0pt">Patients should not take antiretroviral medicinal products or hydroxyurea from at least one month prior to mobilisation until at least 7 days after Zynteglo infusion (see section 4.4).</span></p><p class="C-BodyText" style="margin:0in;line-height:normal"></p><p class="C-BodyText" style="margin:0in;line-height:normal"><span style="font-size:11.0pt">Drug-drug interactions between iron chelators and the myeloablative conditioning agent must be considered. Iron chelators should be discontinued 7 days prior to initiation of conditioning. The Summary of Product Characteristics (SmPC) for the iron chelator and the myeloablative conditioning agent must be consulted for the recommendations regarding co-administration with CYP3A substrates.</span></p><p class="C-BodyText" style="margin:0in;line-height:normal"></p><p class="C-BodyText" style="margin:0in;line-height:normal"><span style="font-size:11.0pt">Some iron chelators are myelosuppressive. After Zynteglo infusion, avoid use of these iron chelators for 6 months. If iron chelation is needed, consider administration of non-myelosuppressive iron chelators (see sections 4.2 and 5.1).</span></p><p class="C-BodyText" style="margin:0in;line-height:normal"></p><p class="C-BodyText" style="margin:0in;line-height:normal"><span style="font-size:11.0pt">No formal drug interaction studies have been performed. Zynteglo is not expected to interact with the hepatic cytochrome P450 family of enzymes or drug transporters.</span></p><p class="C-BodyText" style="margin:0in;line-height:normal"></p><p class="C-BodyText" style="margin:0in;line-height:normal"><span style="font-size:11.0pt">There is no clinical experience with the use of erythropoiesis-stimulating agents in patients treated with Zynteglo.</span></p><p class="C-BodyText" style="margin:0in;line-height:normal"></p><p class="C-BodyText" style="margin:0in;line-height:normal"><span style="font-size:11.0pt">The safety of immunisation with live viral vaccines during or following Zynteglo treatment has not been studied. </span></p><p class="C-BodyText" style="margin:0in;line-height:normal"></p>
			</div>
		</text>
		
    	    
		
</section>
			    
    	    

			    
		               
<section>
			<title value="4.6     Fertility, pregnancy and lactation"/>
				<code>
					<coding>
						<system value="http://spor.ema.europa.eu/v1/example-sections"/>
						<code value="${document[n].section[n].subsection[n].typeCode}"/>
						<display value="${document[n].section[n].subsection[n].typeDisplay}"/>
					</coding>
				</code>
		<text>
			<status value="additional"/>
			<div xmlns="http://www.w3.org/1999/xhtml">
		    <p class="MsoNormal" style="margin-bottom:0in;line-height:normal;page-break-after: avoid"></p><p class="C-BodyText" style="margin:0in;line-height:normal;page-break-after:avoid"><u><span style="font-size:11.0pt">Women of childbearing potential/Contraception in males and females</span></u></p><p class="C-BodyText" style="margin:0in;line-height:normal;page-break-after:avoid"><u><span style="font-size:11.0pt"></span></u></p><p class="C-BodyText" style="margin:0in;line-height:normal"><span style="font-size:11.0pt;color:black">There are insufficient exposure data to provide a precise recommendation on duration of </span><span style="font-size: 11.0pt">contraception following treatment with Zynteglo. Women of childbearing potential and men capable of fathering a child must use a reliable method of contraception (intra-uterine device or combination of hormonal and barrier contraception) from start of mobilisation through at least 6 months after administration of Zynteglo. Consult the SmPC of the myeloablative conditioning agent for information on the need for effective contraception in patients who undergo conditioning. </span></p><p class="C-BodyText" style="margin:0in;line-height:normal"></p><p class="C-BodyText" style="margin:0in;line-height:normal"><u><span style="font-size:11.0pt">Pregnancy</span></u></p><p class="C-BodyText" style="margin:0in;line-height:normal"><u><span style="font-size:11.0pt"></span></u></p><p class="C-BodyText" style="margin:0in;line-height:normal"><span style="font-size:11.0pt">A negative serum pregnancy test must be confirmed prior to the start of mobilisation and re-confirmed prior to conditioning procedures and before medicinal product administration.</span></p><p class="C-BodyText" style="margin:0in;line-height:normal"></p><p class="C-BodyText" style="margin:0in;line-height:normal"><span style="font-size:11.0pt">No clinical data on exposed pregnancies are available.</span></p><p class="C-BodyText" style="margin:0in;line-height:normal"></p><p class="C-BodyText" style="margin:0in;line-height:normal"><span style="font-size:11.0pt">Reproductive and developmental toxicity studies with Zynteglo were not performed. Zynteglo must not be used during pregnancy because of myeloablative conditioning (see section 4.3). It is unknown whether Zynteglo transduced cells have the potential to be transferred in utero to a foetus.</span></p><p class="C-BodyText" style="margin:0in;line-height:normal"></p><p class="C-BodyText" style="margin:0in;line-height:normal"><span style="font-size:11.0pt">There is no opportunity for germline transmission of the <sup>AT87Q</sup>globin gene after treatment with Zynteglo, therefore the likelihood that an offspring would have general somatic expression of the <sup>AT87Q</sup>globin gene is considered negligible.</span></p><p class="C-BodyText" style="margin:0in;line-height:normal"></p><p class="C-BodyText" style="margin:0in;line-height:normal"><u><span style="font-size:11.0pt">Breast-feeding</span></u></p><p class="C-BodyText" style="margin:0in;line-height:normal"><u><span style="font-size:11.0pt"></span></u></p><p class="C-BodyText" style="margin:0in;line-height:normal"><span style="font-size:11.0pt">It is unknown whether Zynteglo is excreted in human milk. The effect of administration of Zynteglo to mothers on their breast-fed children has not been studied.</span></p><p class="C-BodyText" style="margin:0in;line-height:normal"></p><p class="C-BodyText" style="margin:0in;line-height:normal"><span style="font-size:11.0pt">Zynteglo must not be administered to women who are breast-feeding.</span></p><p class="C-BodyText" style="margin:0in;line-height:normal"></p><p class="C-BodyText" style="margin:0in;line-height:normal"><u><span style="font-size:11.0pt">Fertility</span></u></p><p class="C-BodyText" style="margin:0in;line-height:normal"><u><span style="font-size:11.0pt"></span></u></p><p class="C-BodyText" style="margin:0in;line-height:normal"><span style="font-size:11.0pt">There are no data on the effects of Zynteglo on human fertility. Effects on male and female fertility have not been evaluated in animal studies. </span></p><p class="C-BodyText" style="margin:0in;line-height:normal"></p><p class="C-BodyText" style="margin:0in;line-height:normal"><span style="font-size:11.0pt">Data are available on the risk of infertility with myeloablative conditioning. <span style="color:black">It is therefore advised to cryopreserve semen or ova before treatment if possible.</span></span></p><p class="C-BodyText" style="margin:0in;line-height:normal"></p>
			</div>
		</text>
		
    	    
		
</section>
			    
    	    

			    
		               
<section>
			<title value="4.7     Effects on ability to drive and use machines"/>
				<code>
					<coding>
						<system value="http://spor.ema.europa.eu/v1/example-sections"/>
						<code value="${document[n].section[n].subsection[n].typeCode}"/>
						<display value="${document[n].section[n].subsection[n].typeDisplay}"/>
					</coding>
				</code>
		<text>
			<status value="additional"/>
			<div xmlns="http://www.w3.org/1999/xhtml">
		    <p class="MsoNormal" style="margin-bottom:0in;line-height:normal"></p><p class="C-BodyText" style="margin:0in;line-height:normal"><span style="font-size:11.0pt">Zynteglo has no influence on the ability to drive or use machines.<br/> <br/> </span></p><p class="C-BodyText" style="margin:0in;line-height:normal"><span style="font-size:11.0pt">The effect of the mobilisation agents and the myeloablative conditioning agent on the ability to drive or use machines must be considered.</span></p><p class="C-BodyText" style="margin:0in;line-height:normal"></p>
			</div>
		</text>
		
    	    
		
</section>
			    
    	    

			    
		               
<section>
			<title value="4.8     Undesirable effects"/>
				<code>
					<coding>
						<system value="http://spor.ema.europa.eu/v1/example-sections"/>
						<code value="${document[n].section[n].subsection[n].typeCode}"/>
						<display value="${document[n].section[n].subsection[n].typeDisplay}"/>
					</coding>
				</code>
		<text>
			<status value="additional"/>
			<div xmlns="http://www.w3.org/1999/xhtml">
		    <p class="MsoNormal" style="margin-bottom:0in;line-height:normal"></p><p class="C-BodyText" style="margin:0in;line-height:normal"><u><span style="font-size:11.0pt">Summary of the safety profile</span></u></p><p class="C-BodyText" style="margin:0in;line-height:normal"><u><span style="font-size:11.0pt"></span></u></p><p class="C-BodyText" style="margin:0in;line-height:normal"><span style="font-size:11.0pt">The safety of Zynteglo was evaluated in 45 patients with TDT. The only serious adverse reaction attributed to Zynteglo was thrombocytopenia (2.2%). <span style="color:black">Given the small patient population and size of cohorts, adverse reactions in the table below do not provide a complete perspective on the nature and frequency of these events. </span></span></p><p class="C-BodyText" style="margin:0in;line-height:normal"></p><p class="C-BodyText" style="margin:0in;line-height:normal;page-break-after:avoid"><u><span style="font-size:11.0pt">Tabulated list of adverse reactions<br/> <br/> </span></u></p><p class="C-BodyText" style="margin:0in;line-height:normal"><span style="font-size:11.0pt">Adverse reactions are listed by MedDRA body system organ class and by frequency convention. Frequencies are defined as: very common <span style="color:#323232">(1/10), and c</span>ommon (1/100 to &lt;1/10). Within each frequency grouping, adverse reactions are presented in the order of decreasing seriousness.</span></p><p class="C-BodyText" style="margin:0in;line-height:normal"></p><p class="C-BodyText" style="margin:0in;line-height:normal"><span style="font-size:11.0pt">Tables 1, 2, and 3 are lists of adverse reactions attributed to mobilisation/apheresis, myeloablative conditioning, and Zynteglo, respectively, experienced by patients with TDT in clinical trials with Zynteglo.</span></p><p class="C-BodyText" style="margin:0in;line-height:normal"></p><p class="MsoNormal" style="margin-top:0in;margin-right:0in;margin-bottom:0in; margin-left:1.0in;text-indent:-1.0in;line-height:normal;page-break-after:avoid; text-autospace:none"><b><span style='font-family:"Times New Roman",serif'>Table 1              Adverse reactions attributed to mobilisation/apheresis</span></b></p><table border="1" cellpadding="0" cellspacing="0" class="MsoTableGrid" style="border-collapse:collapse;border:none"> <tr> <td style="width:150.95pt;border:solid windowtext 1.0pt;   padding:0in 5.4pt 0in 5.4pt" valign="top" width="201"> <p class="MsoNormal" style="margin-bottom:0in;line-height:normal"><a name="_Hlk4086514"><b><span style='font-family:"Times New Roman",serif'>System   Organ Class (SOC)</span></b></a></p> </td> <td style="width:151.4pt;border:solid windowtext 1.0pt;   border-left:none;padding:0in 5.4pt 0in 5.4pt" valign="top" width="202"> <p class="MsoNormal" style="margin-bottom:0in;line-height:normal"><b><span style='font-family:"Times New Roman",serif'>Very Common (10%)</span></b></p> </td> <td style="width:151.4pt;border:solid windowtext 1.0pt;   border-left:none;padding:0in 5.4pt 0in 5.4pt" valign="top" width="202"> <p class="MsoNormal" style="margin-bottom:0in;line-height:normal"><b><span style='font-family:"Times New Roman",serif'>Common (1% - &lt;10%)</span></b></p> </td> </tr> <tr style="height:8.5pt"> <td style="width:150.95pt;border:solid windowtext 1.0pt;   border-top:none;padding:0in 5.4pt 0in 5.4pt;height:8.5pt" valign="top" width="201"> <p class="MsoNormal" style="margin-bottom:0in;line-height:normal"><span style='font-family:"Times New Roman",serif;color:black'>Blood and lymphatic   system disorders</span></p> </td> <td style="width:151.4pt;border-top:none;border-left:   none;border-bottom:solid windowtext 1.0pt;border-right:solid windowtext 1.0pt;   padding:0in 5.4pt 0in 5.4pt;height:8.5pt" valign="top" width="202"> <p class="MsoNormal" style="margin-bottom:0in;line-height:normal"><span style='font-family:"Times New Roman",serif;color:black'>Thrombocytopenia</span></p> </td> <td style="width:151.4pt;border-top:none;border-left:   none;border-bottom:solid windowtext 1.0pt;border-right:solid windowtext 1.0pt;   padding:0in 5.4pt 0in 5.4pt;height:8.5pt" valign="top" width="202"> <p class="MsoNormal" style="margin-bottom:0in;line-height:normal"><span style='font-family:"Times New Roman",serif;color:black'>Splenomegaly,   Leukocytosis</span></p> </td> </tr> <tr> <td style="width:150.95pt;border:solid windowtext 1.0pt;   border-top:none;padding:0in 5.4pt 0in 5.4pt" valign="top" width="201"> <p class="MsoNormal" style="margin-bottom:0in;line-height:normal"><span style='font-family:"Times New Roman",serif;color:black'>Metabolism and   nutrition disorders</span></p> </td> <td style="width:151.4pt;border-top:none;border-left:   none;border-bottom:solid windowtext 1.0pt;border-right:solid windowtext 1.0pt;   padding:0in 5.4pt 0in 5.4pt" valign="top" width="202"> <p class="MsoNormal" style="margin-bottom:0in;line-height:normal"><span style='font-family:"Times New Roman",serif;color:black'>Hypocalcaemia</span></p> </td> <td style="width:151.4pt;border-top:none;border-left:   none;border-bottom:solid windowtext 1.0pt;border-right:solid windowtext 1.0pt;   padding:0in 5.4pt 0in 5.4pt" valign="top" width="202"> <p class="MsoNormal" style="margin-bottom:0in;line-height:normal"><span style='font-family:"Times New Roman",serif;color:black'>Hypokalaemia,   Hypomagnesaemia</span></p> </td> </tr> <tr> <td style="width:150.95pt;border:solid windowtext 1.0pt;   border-top:none;padding:0in 5.4pt 0in 5.4pt" valign="top" width="201"> <p class="MsoNormal" style="margin-bottom:0in;line-height:normal"><span style='font-family:"Times New Roman",serif;color:black'>Psychiatric disorders</span></p> </td> <td style="width:151.4pt;border-top:none;border-left:   none;border-bottom:solid windowtext 1.0pt;border-right:solid windowtext 1.0pt;   padding:0in 5.4pt 0in 5.4pt" valign="top" width="202"> <p class="MsoNormal" style="margin-bottom:0in;line-height:normal"></p> </td> <td style="width:151.4pt;border-top:none;border-left:   none;border-bottom:solid windowtext 1.0pt;border-right:solid windowtext 1.0pt;   padding:0in 5.4pt 0in 5.4pt" valign="top" width="202"> <p class="MsoNormal" style="margin-bottom:0in;line-height:normal"><span style='font-family:"Times New Roman",serif;color:black'>Agitation</span></p> </td> </tr> <tr> <td style="width:150.95pt;border:solid windowtext 1.0pt;   border-top:none;padding:0in 5.4pt 0in 5.4pt" valign="top" width="201"> <p class="MsoNormal" style="margin-bottom:0in;line-height:normal"><span style='font-family:"Times New Roman",serif;color:black'>Nervous system   disorders</span></p> </td> <td style="width:151.4pt;border-top:none;border-left:   none;border-bottom:solid windowtext 1.0pt;border-right:solid windowtext 1.0pt;   padding:0in 5.4pt 0in 5.4pt" valign="top" width="202"> <p class="MsoNormal" style="margin-bottom:0in;line-height:normal"><span style='font-family:"Times New Roman",serif;color:black'>Headache, Peripheral   sensory neuropathy</span></p> </td> <td style="width:151.4pt;border-top:none;border-left:   none;border-bottom:solid windowtext 1.0pt;border-right:solid windowtext 1.0pt;   padding:0in 5.4pt 0in 5.4pt" valign="top" width="202"> <p class="MsoNormal" style="margin-bottom:0in;line-height:normal"><span style='font-family:"Times New Roman",serif;color:black'>Dizziness, Head   discomfort, Paraesthesia</span></p> </td> </tr> <tr> <td style="width:150.95pt;border:solid windowtext 1.0pt;   border-top:none;padding:0in 5.4pt 0in 5.4pt" valign="top" width="201"> <p class="MsoNormal" style="margin-bottom:0in;line-height:normal"><span style='font-family:"Times New Roman",serif;color:black'>Cardiac disorders</span></p> </td> <td style="width:151.4pt;border-top:none;border-left:   none;border-bottom:solid windowtext 1.0pt;border-right:solid windowtext 1.0pt;   padding:0in 5.4pt 0in 5.4pt" valign="top" width="202"> <p class="MsoNormal" style="margin-bottom:0in;line-height:normal"></p> </td> <td style="width:151.4pt;border-top:none;border-left:   none;border-bottom:solid windowtext 1.0pt;border-right:solid windowtext 1.0pt;   padding:0in 5.4pt 0in 5.4pt" valign="top" width="202"> <p class="MsoNormal" style="margin-bottom:0in;line-height:normal"><span style='font-family:"Times New Roman",serif;color:black'>Cardiac flutter</span></p> </td> </tr> <tr> <td style="width:150.95pt;border:solid windowtext 1.0pt;   border-top:none;padding:0in 5.4pt 0in 5.4pt" valign="top" width="201"> <p class="MsoNormal" style="margin-bottom:0in;line-height:normal"><span style='font-family:"Times New Roman",serif;color:black'>Vascular disorders</span></p> </td> <td style="width:151.4pt;border-top:none;border-left:   none;border-bottom:solid windowtext 1.0pt;border-right:solid windowtext 1.0pt;   padding:0in 5.4pt 0in 5.4pt" valign="top" width="202"> <p class="MsoNormal" style="margin-bottom:0in;line-height:normal"></p> </td> <td style="width:151.4pt;border-top:none;border-left:   none;border-bottom:solid windowtext 1.0pt;border-right:solid windowtext 1.0pt;   padding:0in 5.4pt 0in 5.4pt" valign="top" width="202"> <p class="MsoNormal" style="margin-bottom:0in;line-height:normal"><span style='font-family:"Times New Roman",serif;color:black'>Hypotension</span></p> </td> </tr> <tr> <td style="width:150.95pt;border:solid windowtext 1.0pt;   border-top:none;padding:0in 5.4pt 0in 5.4pt" valign="top" width="201"> <p class="MsoNormal" style="margin-bottom:0in;line-height:normal"><span style='font-family:"Times New Roman",serif;color:black'>Respiratory, thoracic   and mediastinal disorders</span></p> </td> <td style="width:151.4pt;border-top:none;border-left:   none;border-bottom:solid windowtext 1.0pt;border-right:solid windowtext 1.0pt;   padding:0in 5.4pt 0in 5.4pt" valign="top" width="202"> <p class="MsoNormal" style="margin-bottom:0in;line-height:normal"></p> </td> <td style="width:151.4pt;border-top:none;border-left:   none;border-bottom:solid windowtext 1.0pt;border-right:solid windowtext 1.0pt;   padding:0in 5.4pt 0in 5.4pt" valign="top" width="202"> <p class="MsoNormal" style="margin-bottom:0in;line-height:normal"><span style='font-family:"Times New Roman",serif;color:black'>Hypoxia, Epistaxis</span></p> </td> </tr> <tr> <td style="width:150.95pt;border:solid windowtext 1.0pt;   border-top:none;padding:0in 5.4pt 0in 5.4pt" valign="top" width="201"> <p class="MsoNormal" style="margin-bottom:0in;line-height:normal"><span style='font-family:"Times New Roman",serif;color:black'>Gastrointestinal   disorders</span></p> </td> <td style="width:151.4pt;border-top:none;border-left:   none;border-bottom:solid windowtext 1.0pt;border-right:solid windowtext 1.0pt;   padding:0in 5.4pt 0in 5.4pt" valign="top" width="202"> <p class="MsoNormal" style="margin-bottom:0in;line-height:normal"><span style='font-family:"Times New Roman",serif;color:black'>Nausea</span></p> </td> <td style="width:151.4pt;border-top:none;border-left:   none;border-bottom:solid windowtext 1.0pt;border-right:solid windowtext 1.0pt;   padding:0in 5.4pt 0in 5.4pt" valign="top" width="202"> <p class="MsoNormal" style="margin-bottom:0in;line-height:normal"><span style='font-family:"Times New Roman",serif;color:black'>Vomiting, Lip   swelling, Abdominal pain, Abdominal pain upper, Paraesthesia oral </span></p> </td> </tr> <tr> <td style="width:150.95pt;border:solid windowtext 1.0pt;   border-top:none;padding:0in 5.4pt 0in 5.4pt" valign="top" width="201"> <p class="MsoNormal" style="margin-bottom:0in;line-height:normal"><span style='font-family:"Times New Roman",serif;color:black'>Skin and subcutaneous   tissue disorders</span></p> </td> <td style="width:151.4pt;border-top:none;border-left:   none;border-bottom:solid windowtext 1.0pt;border-right:solid windowtext 1.0pt;   padding:0in 5.4pt 0in 5.4pt" valign="top" width="202"> <p class="MsoNormal" style="margin-bottom:0in;line-height:normal"></p> </td> <td style="width:151.4pt;border-top:none;border-left:   none;border-bottom:solid windowtext 1.0pt;border-right:solid windowtext 1.0pt;   padding:0in 5.4pt 0in 5.4pt" valign="top" width="202"> <p class="MsoNormal" style="margin-bottom:0in;line-height:normal"><span style='font-family:"Times New Roman",serif;color:black'>Rash, Hyperhidrosis</span></p> </td> </tr> <tr style="height:22.9pt"> <td style="width:150.95pt;border:solid windowtext 1.0pt;   border-top:none;padding:0in 5.4pt 0in 5.4pt;height:22.9pt" valign="top" width="201"> <p class="MsoNormal" style="margin-bottom:0in;line-height:normal"><span style='font-family:"Times New Roman",serif;color:black'>Musculoskeletal and   connective tissue disorders</span></p> </td> <td style="width:151.4pt;border-top:none;border-left:   none;border-bottom:solid windowtext 1.0pt;border-right:solid windowtext 1.0pt;   padding:0in 5.4pt 0in 5.4pt;height:22.9pt" valign="top" width="202"> <p class="MsoNormal" style="margin-bottom:0in;line-height:normal"><span style='font-family:"Times New Roman",serif;color:black'>Bone pain</span></p> </td> <td style="width:151.4pt;border-top:none;border-left:   none;border-bottom:solid windowtext 1.0pt;border-right:solid windowtext 1.0pt;   padding:0in 5.4pt 0in 5.4pt;height:22.9pt" valign="top" width="202"> <p class="MsoNormal" style="margin-bottom:0in;line-height:normal"><span style='font-family:"Times New Roman",serif;color:black'>Back pain,   Musculoskeletal discomfort</span></p> </td> </tr> <tr> <td style="width:150.95pt;border:solid windowtext 1.0pt;   border-top:none;padding:0in 5.4pt 0in 5.4pt" valign="top" width="201"> <p class="MsoNormal" style="margin-bottom:0in;line-height:normal"><span style='font-family:"Times New Roman",serif;color:black'>General disorders and   administration site conditions</span></p> </td> <td style="width:151.4pt;border-top:none;border-left:   none;border-bottom:solid windowtext 1.0pt;border-right:solid windowtext 1.0pt;   padding:0in 5.4pt 0in 5.4pt" valign="top" width="202"> <p class="MsoNormal" style="margin-bottom:0in;line-height:normal"></p> </td> <td style="width:151.4pt;border-top:none;border-left:   none;border-bottom:solid windowtext 1.0pt;border-right:solid windowtext 1.0pt;   padding:0in 5.4pt 0in 5.4pt" valign="top" width="202"> <p class="MsoNormal" style="margin-bottom:0in;line-height:normal"><span style='font-family:"Times New Roman",serif;color:black'>Pyrexia, Influenza   like illness, Chest discomfort, Chest pain, Injection site reaction, Catheter   site haemorrhage, Catheter site bruise, Injection site bruising, Fatigue,   Non-cardiac chest pain, Catheter site pain, Injection site pain, Puncture   site pain, Pain</span></p> </td> </tr> <tr> <td style="width:150.95pt;border:solid windowtext 1.0pt;   border-top:none;padding:0in 5.4pt 0in 5.4pt" valign="top" width="201"> <p class="MsoNormal" style="margin-bottom:0in;line-height:normal"><span style='font-family:"Times New Roman",serif;color:black'>Investigations</span></p> </td> <td style="width:151.4pt;border-top:none;border-left:   none;border-bottom:solid windowtext 1.0pt;border-right:solid windowtext 1.0pt;   padding:0in 5.4pt 0in 5.4pt" valign="top" width="202"> <p class="MsoNormal" style="margin-bottom:0in;line-height:normal"></p> </td> <td style="width:151.4pt;border-top:none;border-left:   none;border-bottom:solid windowtext 1.0pt;border-right:solid windowtext 1.0pt;   padding:0in 5.4pt 0in 5.4pt" valign="top" width="202"> <p class="MsoNormal" style="margin-bottom:0in;line-height:normal"><span style='font-family:"Times New Roman",serif;color:black'>Blood magnesium   decreased</span></p> </td> </tr> <tr> <td style="width:150.95pt;border:solid windowtext 1.0pt;   border-top:none;padding:0in 5.4pt 0in 5.4pt" valign="top" width="201"> <p class="MsoNormal" style="margin-bottom:0in;line-height:normal"><span style='font-family:"Times New Roman",serif;color:black'>Injury, poisoning and   procedural complications</span></p> </td> <td style="width:151.4pt;border-top:none;border-left:   none;border-bottom:solid windowtext 1.0pt;border-right:solid windowtext 1.0pt;   padding:0in 5.4pt 0in 5.4pt" valign="top" width="202"> <p class="MsoNormal" style="margin-bottom:0in;line-height:normal"></p> </td> <td style="width:151.4pt;border-top:none;border-left:   none;border-bottom:solid windowtext 1.0pt;border-right:solid windowtext 1.0pt;   padding:0in 5.4pt 0in 5.4pt" valign="top" width="202"> <p class="MsoNormal" style="margin-bottom:0in;line-height:normal"><span style='font-family:"Times New Roman",serif;color:black'>Citrate toxicity,   Contusion, Procedural pain</span></p> </td> </tr> </table><p class="MsoNormal" style="margin-top:0in;margin-right:0in;margin-bottom:0in; margin-left:1.0in;text-indent:-1.0in;line-height:normal;text-autospace:none"></p><p class="MsoNormal" style="margin-top:0in;margin-right:0in;margin-bottom:0in; margin-left:1.0in;text-indent:-1.0in;line-height:normal;page-break-before:always; page-break-after:avoid;text-autospace:none"><a name="_Hlk4086533"><b><span style='font-family:"Times New Roman",serif'>Table 2              Adverse reactions attributed to myeloablative conditioning</span></b></a></p><table border="1" cellpadding="0" cellspacing="0" class="MsoTableGrid" style="border-collapse:collapse;border:none"> <thead> <tr style="height:10.3pt"> <td style="width:151.25pt;border:solid windowtext 1.0pt;    padding:0in 5.4pt 0in 5.4pt;height:10.3pt" valign="top" width="202"> <p class="MsoNormal" style="margin-bottom:0in;line-height:normal"><b><span style='font-family:"Times New Roman",serif'>SOC</span></b></p> </td> <td style="width:151.25pt;border:solid windowtext 1.0pt;    border-left:none;padding:0in 5.4pt 0in 5.4pt;height:10.3pt" valign="top" width="202"> <p class="MsoNormal" style="margin-bottom:0in;line-height:normal"><b><span style='font-family:"Times New Roman",serif'>Very Common (10%)</span></b></p> </td> <td style="width:151.25pt;border:solid windowtext 1.0pt;    border-left:none;padding:0in 5.4pt 0in 5.4pt;height:10.3pt" valign="top" width="202"> <p class="MsoNormal" style="margin-bottom:0in;line-height:normal"><b><span style='font-family:"Times New Roman",serif'>Common (1% - &lt;10%)</span></b></p> </td> </tr> </thead> <tr> <td style="width:151.25pt;border:solid windowtext 1.0pt;   border-top:none;padding:0in 5.4pt 0in 5.4pt" valign="top" width="202"> <p class="MsoNormal" style="margin-bottom:0in;line-height:normal"><span style='font-family:"Times New Roman",serif;color:black'>Infections and   infestations</span></p> <p class="MsoNormal" style="margin-bottom:0in;line-height:normal"></p> </td> <td style="width:151.25pt;border-top:none;border-left:   none;border-bottom:solid windowtext 1.0pt;border-right:solid windowtext 1.0pt;   padding:0in 5.4pt 0in 5.4pt" valign="top" width="202"> <p class="MsoNormal" style="margin-bottom:0in;line-height:normal"></p> </td> <td style="width:151.25pt;border-top:none;border-left:   none;border-bottom:solid windowtext 1.0pt;border-right:solid windowtext 1.0pt;   padding:0in 5.4pt 0in 5.4pt" valign="top" width="202"> <p class="MsoNormal" style="margin-bottom:0in;line-height:normal"><span style='font-family:"Times New Roman",serif;color:black'>Neutropenic sepsis,   Systemic infection, Staphylococcal infection, Pneumonia, Lower respiratory   tract infection, Urinary tract infection, Mucosal infection, Cellulitis,   Vaginal infection, Rash pustular, Folliculitis, Gingivitis, Vulvovaginal   candidiasis</span></p> </td> </tr> <tr style="height:8.5pt"> <td style="width:151.25pt;border:solid windowtext 1.0pt;   border-top:none;padding:0in 5.4pt 0in 5.4pt;height:8.5pt" valign="top" width="202"> <p class="MsoNormal" style="margin-bottom:0in;line-height:normal;page-break-after:   avoid"><span style='font-family:"Times New Roman",serif;color:black'>Blood   and lymphatic system disorders</span></p> </td> <td style="width:151.25pt;border-top:none;border-left:   none;border-bottom:solid windowtext 1.0pt;border-right:solid windowtext 1.0pt;   padding:0in 5.4pt 0in 5.4pt;height:8.5pt" valign="top" width="202"> <p class="MsoNormal" style="margin-bottom:0in;line-height:normal;page-break-after:   avoid"><span lang="IT" style='font-family:"Times New Roman",serif;color:black'>Febrile   neutropenia, Neutropenia, Thrombocytopenia, Leukopenia, Anaemia</span></p> </td> <td style="width:151.25pt;border-top:none;border-left:   none;border-bottom:solid windowtext 1.0pt;border-right:solid windowtext 1.0pt;   padding:0in 5.4pt 0in 5.4pt;height:8.5pt" valign="top" width="202"> <p class="MsoNormal" style="margin-bottom:0in;line-height:normal;page-break-after:   avoid"><span style='font-family:"Times New Roman",serif;color:black'>Lymphopenia,   Leukocytosis, Monocyte count decreased, Neutrophilia, Mean cell haemoglobin   concentration increased</span></p> </td> </tr> <tr style="height:8.5pt"> <td style="width:151.25pt;border:solid windowtext 1.0pt;   border-top:none;padding:0in 5.4pt 0in 5.4pt;height:8.5pt" valign="top" width="202"> <p class="MsoNormal" style="margin-bottom:0in;line-height:normal;page-break-after:   avoid"><span style='font-family:"Times New Roman",serif;color:black'>Endocrine   disorders</span></p> </td> <td style="width:151.25pt;border-top:none;border-left:   none;border-bottom:solid windowtext 1.0pt;border-right:solid windowtext 1.0pt;   padding:0in 5.4pt 0in 5.4pt;height:8.5pt" valign="top" width="202"> <p class="MsoNormal" style="margin-bottom:0in;line-height:normal;page-break-after:   avoid"></p> </td> <td style="width:151.25pt;border-top:none;border-left:   none;border-bottom:solid windowtext 1.0pt;border-right:solid windowtext 1.0pt;   padding:0in 5.4pt 0in 5.4pt;height:8.5pt" valign="top" width="202"> <p class="MsoNormal" style="margin-bottom:0in;line-height:normal;page-break-after:   avoid"><span style='font-family:"Times New Roman",serif;color:black'>Primary   hypogonadism</span></p> </td> </tr> <tr> <td style="width:151.25pt;border:solid windowtext 1.0pt;   border-top:none;padding:0in 5.4pt 0in 5.4pt" valign="top" width="202"> <p class="MsoNormal" style="margin-bottom:0in;line-height:normal"><span style='font-family:"Times New Roman",serif;color:black'>Metabolism and nutrition   disorders</span></p> </td> <td style="width:151.25pt;border-top:none;border-left:   none;border-bottom:solid windowtext 1.0pt;border-right:solid windowtext 1.0pt;   padding:0in 5.4pt 0in 5.4pt" valign="top" width="202"> <p class="MsoNormal" style="margin-bottom:0in;line-height:normal"><span style='font-family:"Times New Roman",serif;color:black'>Decreased appetite</span></p> </td> <td style="width:151.25pt;border-top:none;border-left:   none;border-bottom:solid windowtext 1.0pt;border-right:solid windowtext 1.0pt;   padding:0in 5.4pt 0in 5.4pt" valign="top" width="202"> <p class="MsoNormal" style="margin-bottom:0in;line-height:normal"><span style='font-family:"Times New Roman",serif;color:black'>Hypocalcaemia,   Hypokalaemia, Metabolic acidosis, Fluid overload, Fluid retention,   Hypomagnesaemia, Hyponatraemia, Hypophosphataemia, Hyperphosphataemia</span></p> </td> </tr> <tr> <td style="width:151.25pt;border:solid windowtext 1.0pt;   border-top:none;padding:0in 5.4pt 0in 5.4pt" valign="top" width="202"> <p class="MsoNormal" style="margin-bottom:0in;line-height:normal"><span style='font-family:"Times New Roman",serif;color:black'>Psychiatric disorders</span></p> </td> <td style="width:151.25pt;border-top:none;border-left:   none;border-bottom:solid windowtext 1.0pt;border-right:solid windowtext 1.0pt;   padding:0in 5.4pt 0in 5.4pt" valign="top" width="202"> <p class="MsoNormal" style="margin-bottom:0in;line-height:normal"><span style='font-family:"Times New Roman",serif;color:black'>Insomnia</span></p> </td> <td style="width:151.25pt;border-top:none;border-left:   none;border-bottom:solid windowtext 1.0pt;border-right:solid windowtext 1.0pt;   padding:0in 5.4pt 0in 5.4pt" valign="top" width="202"> <p class="MsoNormal" style="margin-bottom:0in;line-height:normal"><span style='font-family:"Times New Roman",serif;color:black'>Anxiety</span></p> </td> </tr> <tr> <td style="width:151.25pt;border:solid windowtext 1.0pt;   border-top:none;padding:0in 5.4pt 0in 5.4pt" valign="top" width="202"> <p class="MsoNormal" style="margin-bottom:0in;line-height:normal"><span style='font-family:"Times New Roman",serif;color:black'>Nervous system   disorders</span></p> </td> <td style="width:151.25pt;border-top:none;border-left:   none;border-bottom:solid windowtext 1.0pt;border-right:solid windowtext 1.0pt;   padding:0in 5.4pt 0in 5.4pt" valign="top" width="202"> <p class="MsoNormal" style="margin-bottom:0in;line-height:normal"><span style='font-family:"Times New Roman",serif;color:black'>Headache</span></p> </td> <td style="width:151.25pt;border-top:none;border-left:   none;border-bottom:solid windowtext 1.0pt;border-right:solid windowtext 1.0pt;   padding:0in 5.4pt 0in 5.4pt" valign="top" width="202"> <p class="MsoNormal" style="margin-bottom:0in;line-height:normal"><span style='font-family:"Times New Roman",serif;color:black'>Dizziness, Lethargy,   Dysgeusia, Ageusia, Memory impairment</span></p> </td> </tr> <tr> <td style="width:151.25pt;border:solid windowtext 1.0pt;   border-top:none;padding:0in 5.4pt 0in 5.4pt" valign="top" width="202"> <p class="MsoNormal" style="margin-bottom:0in;line-height:normal"><span style='font-family:"Times New Roman",serif;color:black'>Eye disorders</span></p> </td> <td style="width:151.25pt;border-top:none;border-left:   none;border-bottom:solid windowtext 1.0pt;border-right:solid windowtext 1.0pt;   padding:0in 5.4pt 0in 5.4pt" valign="top" width="202"> <p class="MsoNormal" style="margin-bottom:0in;line-height:normal"></p> </td> <td style="width:151.25pt;border-top:none;border-left:   none;border-bottom:solid windowtext 1.0pt;border-right:solid windowtext 1.0pt;   padding:0in 5.4pt 0in 5.4pt" valign="top" width="202"> <p class="MsoNormal" style="margin-bottom:0in;line-height:normal"><span style='font-family:"Times New Roman",serif;color:black'>Conjunctival   haemorrhage</span></p> </td> </tr> <tr> <td style="width:151.25pt;border:solid windowtext 1.0pt;   border-top:none;padding:0in 5.4pt 0in 5.4pt" valign="top" width="202"> <p class="MsoNormal" style="margin-bottom:0in;line-height:normal"><span style='font-family:"Times New Roman",serif;color:black'>Ear and labyrinth   disorders</span></p> </td> <td style="width:151.25pt;border-top:none;border-left:   none;border-bottom:solid windowtext 1.0pt;border-right:solid windowtext 1.0pt;   padding:0in 5.4pt 0in 5.4pt" valign="top" width="202"> <p class="MsoNormal" style="margin-bottom:0in;line-height:normal"></p> </td> <td style="width:151.25pt;border-top:none;border-left:   none;border-bottom:solid windowtext 1.0pt;border-right:solid windowtext 1.0pt;   padding:0in 5.4pt 0in 5.4pt" valign="top" width="202"> <p class="MsoNormal" style="margin-bottom:0in;line-height:normal"><span style='font-family:"Times New Roman",serif;color:black'>Vertigo</span></p> </td> </tr> <tr> <td style="width:151.25pt;border:solid windowtext 1.0pt;   border-top:none;padding:0in 5.4pt 0in 5.4pt" valign="top" width="202"> <p class="MsoNormal" style="margin-bottom:0in;line-height:normal"><span style='font-family:"Times New Roman",serif;color:black'>Cardiac disorders</span></p> </td> <td style="width:151.25pt;border-top:none;border-left:   none;border-bottom:solid windowtext 1.0pt;border-right:solid windowtext 1.0pt;   padding:0in 5.4pt 0in 5.4pt" valign="top" width="202"> <p class="MsoNormal" style="margin-bottom:0in;line-height:normal"></p> </td> <td style="width:151.25pt;border-top:none;border-left:   none;border-bottom:solid windowtext 1.0pt;border-right:solid windowtext 1.0pt;   padding:0in 5.4pt 0in 5.4pt" valign="top" width="202"> <p class="MsoNormal" style="margin-bottom:0in;line-height:normal"><span style='font-family:"Times New Roman",serif;color:black'>Cardiac failure   congestive, Atrial fibrillation </span></p> </td> </tr> <tr> <td style="width:151.25pt;border:solid windowtext 1.0pt;   border-top:none;padding:0in 5.4pt 0in 5.4pt" valign="top" width="202"> <p class="MsoNormal" style="margin-bottom:0in;line-height:normal"><span style='font-family:"Times New Roman",serif;color:black'>Vascular disorders</span></p> </td> <td style="width:151.25pt;border-top:none;border-left:   none;border-bottom:solid windowtext 1.0pt;border-right:solid windowtext 1.0pt;   padding:0in 5.4pt 0in 5.4pt" valign="top" width="202"> <p class="MsoNormal" style="margin-bottom:0in;line-height:normal"></p> </td> <td style="width:151.25pt;border-top:none;border-left:   none;border-bottom:solid windowtext 1.0pt;border-right:solid windowtext 1.0pt;   padding:0in 5.4pt 0in 5.4pt" valign="top" width="202"> <p class="MsoNormal" style="margin-bottom:0in;line-height:normal"><span style='font-family:"Times New Roman",serif;color:black'>Hypotension,   Haematoma, Hot flush</span></p> </td> </tr> <tr> <td style="width:151.25pt;border:solid windowtext 1.0pt;   border-top:none;padding:0in 5.4pt 0in 5.4pt" valign="top" width="202"> <p class="MsoNormal" style="margin-bottom:0in;line-height:normal"><span style='font-family:"Times New Roman",serif;color:black'>Respiratory, thoracic   and mediastinal disorders</span></p> </td> <td style="width:151.25pt;border-top:none;border-left:   none;border-bottom:solid windowtext 1.0pt;border-right:solid windowtext 1.0pt;   padding:0in 5.4pt 0in 5.4pt" valign="top" width="202"> <p class="MsoNormal" style="margin-bottom:0in;line-height:normal"><span style='font-family:"Times New Roman",serif;color:black'>Epistaxis, Pharyngeal   inflammation</span></p> </td> <td style="width:151.25pt;border-top:none;border-left:   none;border-bottom:solid windowtext 1.0pt;border-right:solid windowtext 1.0pt;   padding:0in 5.4pt 0in 5.4pt" valign="top" width="202"> <p class="MsoNormal" style="margin-bottom:0in;line-height:normal"><span style='font-family:"Times New Roman",serif;color:black'>Hypoxia, Pulmonary   mass, Dyspnoea, Pleural effusion, Rales, Upper-airway cough syndrome, Cough,   Laryngeal pain, Hiccups, Oropharyngeal pain </span></p> </td> </tr> <tr> <td style="width:151.25pt;border:solid windowtext 1.0pt;   border-top:none;padding:0in 5.4pt 0in 5.4pt" valign="top" width="202"> <p class="MsoNormal" style="margin-bottom:0in;line-height:normal"><span style='font-family:"Times New Roman",serif;color:black'>Gastrointestinal   disorders</span></p> </td> <td style="width:151.25pt;border-top:none;border-left:   none;border-bottom:solid windowtext 1.0pt;border-right:solid windowtext 1.0pt;   padding:0in 5.4pt 0in 5.4pt" valign="top" width="202"> <p class="MsoNormal" style="margin-bottom:0in;line-height:normal"><span style='font-family:"Times New Roman",serif;color:black'>Stomatitis, Vomiting,   Nausea, Diarrhoea, Gingival bleeding, Constipation, Abdominal pain, Anal   inflammation </span></p> </td> <td style="width:151.25pt;border-top:none;border-left:   none;border-bottom:solid windowtext 1.0pt;border-right:solid windowtext 1.0pt;   padding:0in 5.4pt 0in 5.4pt" valign="top" width="202"> <p class="MsoNormal" style="margin-bottom:0in;line-height:normal"><span style='font-family:"Times New Roman",serif;color:black'>Anal haemorrhage,   Gastritis, Gastrointestinal inflammation, Abdominal distension, Abdominal   pain upper, Anal fissure, Dyspepsia, Dysphagia, Oesophagitis, Haemorrhoids,   Proctalgia, Lip dry</span></p> </td> </tr> <tr> <td style="width:151.25pt;border:solid windowtext 1.0pt;   border-top:none;padding:0in 5.4pt 0in 5.4pt" valign="top" width="202"> <p class="MsoNormal" style="margin-bottom:0in;line-height:normal"><span style='font-family:"Times New Roman",serif;color:black'>Hepatobiliary   disorders</span></p> </td> <td style="width:151.25pt;border-top:none;border-left:   none;border-bottom:solid windowtext 1.0pt;border-right:solid windowtext 1.0pt;   padding:0in 5.4pt 0in 5.4pt" valign="top" width="202"> <p class="MsoNormal" style="margin-bottom:0in;line-height:normal"><span style='font-family:"Times New Roman",serif;color:black'>Venoocclusive   liver disease, Alanine aminotransferase increased, Aspartate aminotransferase   increased, Blood bilirubin increased</span></p> </td> <td style="width:151.25pt;border-top:none;border-left:   none;border-bottom:solid windowtext 1.0pt;border-right:solid windowtext 1.0pt;   padding:0in 5.4pt 0in 5.4pt" valign="top" width="202"> <p class="MsoNormal" style="margin-bottom:0in;line-height:normal"><span style='font-family:"Times New Roman",serif;color:black'>Cholecystitis,   Cholelithiasis, Hepatomegaly, Jaundice, Transaminases increased,   Gamma-glutamyltransferase increased</span></p> </td> </tr> <tr> <td style="width:151.25pt;border:solid windowtext 1.0pt;   border-top:none;padding:0in 5.4pt 0in 5.4pt" valign="top" width="202"> <p class="MsoNormal" style="margin-bottom:0in;line-height:normal"><span style='font-family:"Times New Roman",serif;color:black'>Skin and subcutaneous   tissue disorders</span></p> </td> <td style="width:151.25pt;border-top:none;border-left:   none;border-bottom:solid windowtext 1.0pt;border-right:solid windowtext 1.0pt;   padding:0in 5.4pt 0in 5.4pt" valign="top" width="202"> <p class="MsoNormal" style="margin-bottom:0in;line-height:normal"><span style='font-family:"Times New Roman",serif;color:black'>Alopecia, Pruritus,   Skin hyperpigmentation</span></p> </td> <td style="width:151.25pt;border-top:none;border-left:   none;border-bottom:solid windowtext 1.0pt;border-right:solid windowtext 1.0pt;   padding:0in 5.4pt 0in 5.4pt" valign="top" width="202"> <p class="MsoNormal" style="margin-bottom:0in;line-height:normal"><span style='font-family:"Times New Roman",serif;color:black'>Petechiae,   Ecchymosis, Pain of skin, Palpable purpura, Pigmentation disorder, Pruritus   generalised, Purpura, Sweat gland disorder, Urticaria, Dry skin, Rash</span></p> </td> </tr> <tr> <td style="width:151.25pt;border:solid windowtext 1.0pt;   border-top:none;padding:0in 5.4pt 0in 5.4pt" valign="top" width="202"> <p class="MsoNormal" style="margin-bottom:0in;line-height:normal"><span style='font-family:"Times New Roman",serif;color:black'>Musculoskeletal and   connective tissue disorders</span></p> </td> <td style="width:151.25pt;border-top:none;border-left:   none;border-bottom:solid windowtext 1.0pt;border-right:solid windowtext 1.0pt;   padding:0in 5.4pt 0in 5.4pt" valign="top" width="202"> <p class="MsoNormal" style="margin-bottom:0in;line-height:normal"></p> </td> <td style="width:151.25pt;border-top:none;border-left:   none;border-bottom:solid windowtext 1.0pt;border-right:solid windowtext 1.0pt;   padding:0in 5.4pt 0in 5.4pt" valign="top" width="202"> <p class="MsoNormal" style="margin-bottom:0in;line-height:normal"><span style='font-family:"Times New Roman",serif;color:black'>Bone pain, Myalgia,   Pain in extremity, Back pain</span></p> </td> </tr> <tr> <td style="width:151.25pt;border:solid windowtext 1.0pt;   border-top:none;padding:0in 5.4pt 0in 5.4pt" valign="top" width="202"> <p class="MsoNormal" style="margin-bottom:0in;line-height:normal"><span style='font-family:"Times New Roman",serif;color:black'>Renal and urinary   disorders</span></p> </td> <td style="width:151.25pt;border-top:none;border-left:   none;border-bottom:solid windowtext 1.0pt;border-right:solid windowtext 1.0pt;   padding:0in 5.4pt 0in 5.4pt" valign="top" width="202"> <p class="MsoNormal" style="margin-bottom:0in;line-height:normal"></p> </td> <td style="width:151.25pt;border-top:none;border-left:   none;border-bottom:solid windowtext 1.0pt;border-right:solid windowtext 1.0pt;   padding:0in 5.4pt 0in 5.4pt" valign="top" width="202"> <p class="MsoNormal" style="margin-bottom:0in;line-height:normal"><span style='font-family:"Times New Roman",serif;color:black'>Haematuria,   Pollakiuria</span></p> </td> </tr> <tr> <td style="width:151.25pt;border:solid windowtext 1.0pt;   border-top:none;padding:0in 5.4pt 0in 5.4pt" valign="top" width="202"> <p class="MsoNormal" style="margin-bottom:0in;line-height:normal"><span style='font-family:"Times New Roman",serif;color:black'>Reproductive system   and breast disorders</span></p> </td> <td style="width:151.25pt;border-top:none;border-left:   none;border-bottom:solid windowtext 1.0pt;border-right:solid windowtext 1.0pt;   padding:0in 5.4pt 0in 5.4pt" valign="top" width="202"> <p class="MsoNormal" style="margin-bottom:0in;line-height:normal"><span style='font-family:"Times New Roman",serif;color:black'>Vaginal haemorrhage</span></p> </td> <td style="width:151.25pt;border-top:none;border-left:   none;border-bottom:solid windowtext 1.0pt;border-right:solid windowtext 1.0pt;   padding:0in 5.4pt 0in 5.4pt" valign="top" width="202"> <p class="MsoNormal" style="margin-bottom:0in;line-height:normal"><span style='font-family:"Times New Roman",serif;color:black'>Ovarian failure,   Menstruation irregular, Premature menopause, Blood follicle stimulating   hormone increased, Blood testosterone decreased</span></p> </td> </tr> <tr> <td style="width:151.25pt;border:solid windowtext 1.0pt;   border-top:none;padding:0in 5.4pt 0in 5.4pt" valign="top" width="202"> <p class="MsoNormal" style="margin-bottom:0in;line-height:normal"><span style='font-family:"Times New Roman",serif;color:black'>General disorders and   administration site conditions</span></p> </td> <td style="width:151.25pt;border-top:none;border-left:   none;border-bottom:solid windowtext 1.0pt;border-right:solid windowtext 1.0pt;   padding:0in 5.4pt 0in 5.4pt" valign="top" width="202"> <p class="MsoNormal" style="margin-bottom:0in;line-height:normal"><span style='font-family:"Times New Roman",serif;color:black'>Pyrexia, Fatigue,   Mucosal inflammation</span></p> </td> <td style="width:151.25pt;border-top:none;border-left:   none;border-bottom:solid windowtext 1.0pt;border-right:solid windowtext 1.0pt;   padding:0in 5.4pt 0in 5.4pt" valign="top" width="202"> <p class="MsoNormal" style="margin-bottom:0in;line-height:normal"><span style='font-family:"Times New Roman",serif;color:black'>Face oedema,   Hypothermia, Feeling cold, Pain, Xerosis</span></p> </td> </tr> <tr> <td style="width:151.25pt;border:solid windowtext 1.0pt;   border-top:none;padding:0in 5.4pt 0in 5.4pt" valign="top" width="202"> <p class="MsoNormal" style="margin-bottom:0in;line-height:normal;page-break-after:   avoid"><span style='font-family:"Times New Roman",serif;color:black'>Investigations</span></p> </td> <td style="width:151.25pt;border-top:none;border-left:   none;border-bottom:solid windowtext 1.0pt;border-right:solid windowtext 1.0pt;   padding:0in 5.4pt 0in 5.4pt" valign="top" width="202"> <p class="MsoNormal" style="margin-bottom:0in;line-height:normal;page-break-after:   avoid"></p> </td> <td style="width:151.25pt;border-top:none;border-left:   none;border-bottom:solid windowtext 1.0pt;border-right:solid windowtext 1.0pt;   padding:0in 5.4pt 0in 5.4pt" valign="top" width="202"> <p class="MsoNormal" style="margin-bottom:0in;line-height:normal;page-break-after:   avoid"><span style='font-family:"Times New Roman",serif;color:black'>Creactive   protein increased, Aspergillus test positive, Blood potassium decreased,   Weight decreased, Blood alkaline phosphatase decreased, Blood magnesium   decreased, Forced expiratory flow decreased, Protein total decreased, Blood   albumin decreased, Reticulocyte count decreased, Reticulocyte percentage   decreased</span></p> </td> </tr> <tr style="height:23.8pt"> <td style="width:151.25pt;border:solid windowtext 1.0pt;   border-top:none;padding:0in 5.4pt 0in 5.4pt;height:23.8pt" valign="top" width="202"> <p class="MsoNormal" style="margin-bottom:0in;line-height:normal"><span style='font-family:"Times New Roman",serif;color:black'>Injury, poisoning and   procedural complications</span></p> </td> <td style="width:151.25pt;border-top:none;border-left:   none;border-bottom:solid windowtext 1.0pt;border-right:solid windowtext 1.0pt;   padding:0in 5.4pt 0in 5.4pt;height:23.8pt" valign="top" width="202"> <p class="MsoNormal" style="margin-bottom:0in;line-height:normal"></p> </td> <td style="width:151.25pt;border-top:none;border-left:   none;border-bottom:solid windowtext 1.0pt;border-right:solid windowtext 1.0pt;   padding:0in 5.4pt 0in 5.4pt;height:23.8pt" valign="top" width="202"> <p class="MsoNormal" style="margin-bottom:0in;line-height:normal"><span style='font-family:"Times New Roman",serif;color:black'>Transfusion reaction,   Skin abrasion</span></p> </td> </tr> </table><p class="MsoNormal" style="margin-top:0in;margin-right:0in;margin-bottom:0in; margin-left:1.0in;text-indent:-1.0in;line-height:normal;text-autospace:none"></p><p class="MsoNormal" style="margin-top:0in;margin-right:0in;margin-bottom:0in; margin-left:1.0in;text-indent:-1.0in;line-height:normal;page-break-after:avoid; text-autospace:none"><b><span style='font-family:"Times New Roman",serif'>Table 3              Adverse reactions attributed to Zynteglo</span></b></p><table border="1" cellpadding="0" cellspacing="0" class="MsoTableGrid" style="width:451.75pt;border-collapse:collapse;border:none" width="602"> <tr style="height:14.35pt"> <td style="width:150.55pt;border:solid windowtext 1.0pt;   padding:0in 5.4pt 0in 5.4pt;height:14.35pt" valign="top" width="201"> <p class="MsoNormal" style="margin-bottom:0in;line-height:normal"><b><span style='font-family:"Times New Roman",serif'>SOC</span></b></p> </td> <td style="width:150.6pt;border:solid windowtext 1.0pt;   border-left:none;padding:0in 5.4pt 0in 5.4pt;height:14.35pt" valign="top" width="201"> <p class="MsoNormal" style="margin-bottom:0in;line-height:normal"><b><span style='font-family:"Times New Roman",serif'>Very Common (10%)</span></b></p> </td> <td style="width:150.6pt;border:solid windowtext 1.0pt;   border-left:none;padding:0in 5.4pt 0in 5.4pt;height:14.35pt" valign="top" width="201"> <p class="MsoNormal" style="margin-bottom:0in;line-height:normal"><b><span style='font-family:"Times New Roman",serif'>Common (1% - &lt;10%)</span></b></p> </td> </tr> <tr style="height:9.4pt"> <td style="width:150.55pt;border:solid windowtext 1.0pt;   border-top:none;padding:0in 5.4pt 0in 5.4pt;height:9.4pt" valign="top" width="201"> <p class="MsoNormal" style="margin-bottom:0in;line-height:normal"><span style='font-family:"Times New Roman",serif;color:black'>Blood and lymphatic   system disorders</span></p> </td> <td style="width:150.6pt;border-top:none;border-left:   none;border-bottom:solid windowtext 1.0pt;border-right:solid windowtext 1.0pt;   padding:0in 5.4pt 0in 5.4pt;height:9.4pt" valign="top" width="201"> <p class="MsoNormal" style="margin-bottom:0in;line-height:normal"></p> </td> <td style="width:150.6pt;border-top:none;border-left:   none;border-bottom:solid windowtext 1.0pt;border-right:solid windowtext 1.0pt;   padding:0in 5.4pt 0in 5.4pt;height:9.4pt" valign="top" width="201"> <p class="MsoNormal" style="margin-bottom:0in;line-height:normal"><span style='font-family:"Times New Roman",serif;color:black'>Thrombocytopenia, </span></p> <p class="MsoNormal" style="margin-bottom:0in;line-height:normal"><span style='font-family:"Times New Roman",serif;color:black'>Leukopenia,   Neutropenia</span></p> </td> </tr> <tr style="height:14.35pt"> <td style="width:150.55pt;border:solid windowtext 1.0pt;   border-top:none;padding:0in 5.4pt 0in 5.4pt;height:14.35pt" valign="top" width="201"> <p class="MsoNormal" style="margin-bottom:0in;line-height:normal"><span style='font-family:"Times New Roman",serif;color:black'>Vascular disorders</span></p> </td> <td style="width:150.6pt;border-top:none;border-left:   none;border-bottom:solid windowtext 1.0pt;border-right:solid windowtext 1.0pt;   padding:0in 5.4pt 0in 5.4pt;height:14.35pt" valign="top" width="201"> <p class="MsoNormal" style="margin-bottom:0in;line-height:normal"></p> </td> <td style="width:150.6pt;border-top:none;border-left:   none;border-bottom:solid windowtext 1.0pt;border-right:solid windowtext 1.0pt;   padding:0in 5.4pt 0in 5.4pt;height:14.35pt" valign="top" width="201"> <p class="MsoNormal" style="margin-bottom:0in;line-height:normal"><span style='font-family:"Times New Roman",serif;color:black'>Hot flush</span></p> </td> </tr> <tr style="height:14.05pt"> <td style="width:150.55pt;border:solid windowtext 1.0pt;   border-top:none;padding:0in 5.4pt 0in 5.4pt;height:14.05pt" valign="top" width="201"> <p class="MsoNormal" style="margin-bottom:0in;line-height:normal"><span style='font-family:"Times New Roman",serif;color:black'>Respiratory, thoracic   and mediastinal disorders</span></p> </td> <td style="width:150.6pt;border-top:none;border-left:   none;border-bottom:solid windowtext 1.0pt;border-right:solid windowtext 1.0pt;   padding:0in 5.4pt 0in 5.4pt;height:14.05pt" valign="top" width="201"> <p class="MsoNormal" style="margin-bottom:0in;line-height:normal"></p> </td> <td style="width:150.6pt;border-top:none;border-left:   none;border-bottom:solid windowtext 1.0pt;border-right:solid windowtext 1.0pt;   padding:0in 5.4pt 0in 5.4pt;height:14.05pt" valign="top" width="201"> <p class="MsoNormal" style="margin-bottom:0in;line-height:normal"><span style='font-family:"Times New Roman",serif;color:black'>Dyspnoea</span></p> </td> </tr> <tr style="height:14.35pt"> <td style="width:150.55pt;border:solid windowtext 1.0pt;   border-top:none;padding:0in 5.4pt 0in 5.4pt;height:14.35pt" valign="top" width="201"> <p class="MsoNormal" style="margin-bottom:0in;line-height:normal"><span style='font-family:"Times New Roman",serif;color:black'>Gastrointestinal   disorders</span></p> </td> <td style="width:150.6pt;border-top:none;border-left:   none;border-bottom:solid windowtext 1.0pt;border-right:solid windowtext 1.0pt;   padding:0in 5.4pt 0in 5.4pt;height:14.35pt" valign="top" width="201"> <p class="MsoNormal" style="margin-bottom:0in;line-height:normal"><span style='font-family:"Times New Roman",serif;color:black'>Abdominal pain</span></p> </td> <td style="width:150.6pt;border-top:none;border-left:   none;border-bottom:solid windowtext 1.0pt;border-right:solid windowtext 1.0pt;   padding:0in 5.4pt 0in 5.4pt;height:14.35pt" valign="top" width="201"> <p class="MsoNormal" style="margin-bottom:0in;line-height:normal"></p> </td> </tr> <tr style="height:14.35pt"> <td style="width:150.55pt;border:solid windowtext 1.0pt;   border-top:none;padding:0in 5.4pt 0in 5.4pt;height:14.35pt" valign="top" width="201"> <p class="MsoNormal" style="margin-bottom:0in;line-height:normal"><span style='font-family:"Times New Roman",serif;color:black'>Musculoskeletal and   connective tissue disorders</span></p> </td> <td style="width:150.6pt;border-top:none;border-left:   none;border-bottom:solid windowtext 1.0pt;border-right:solid windowtext 1.0pt;   padding:0in 5.4pt 0in 5.4pt;height:14.35pt" valign="top" width="201"> <p class="MsoNormal" style="margin-bottom:0in;line-height:normal"></p> </td> <td style="width:150.6pt;border-top:none;border-left:   none;border-bottom:solid windowtext 1.0pt;border-right:solid windowtext 1.0pt;   padding:0in 5.4pt 0in 5.4pt;height:14.35pt" valign="top" width="201"> <p class="MsoNormal" style="margin-bottom:0in;line-height:normal"><span style='font-family:"Times New Roman",serif;color:black'>Pain in extremity</span></p> </td> </tr> <tr style="height:28.5pt"> <td style="width:150.55pt;border:solid windowtext 1.0pt;   border-top:none;padding:0in 5.4pt 0in 5.4pt;height:28.5pt" valign="top" width="201"> <p class="MsoNormal" style="margin-bottom:0in;line-height:normal"><span style='font-family:"Times New Roman",serif;color:black'>General disorders and   administration site conditions</span></p> </td> <td style="width:150.6pt;border-top:none;border-left:   none;border-bottom:solid windowtext 1.0pt;border-right:solid windowtext 1.0pt;   padding:0in 5.4pt 0in 5.4pt;height:28.5pt" valign="top" width="201"> <p class="MsoNormal" style="margin-bottom:0in;line-height:normal"></p> </td> <td style="width:150.6pt;border-top:none;border-left:   none;border-bottom:solid windowtext 1.0pt;border-right:solid windowtext 1.0pt;   padding:0in 5.4pt 0in 5.4pt;height:28.5pt" valign="top" width="201"> <p class="MsoNormal" style="margin-bottom:0in;line-height:normal"><span style='font-family:"Times New Roman",serif;color:black'>Non-cardiac chest   pain</span></p> </td> </tr> </table><p class="MsoNormal" style="margin-top:0in;margin-right:0in;margin-bottom:0in; margin-left:1.0in;text-indent:-1.0in;line-height:normal;text-autospace:none"></p><p class="C-BodyText" style="margin:0in;line-height:normal"><u><span style="font-size:11.0pt">Description of selected adverse reactions</span></u></p><p class="C-BodyText" style="margin:0in;line-height:normal"></p><p class="C-BodyText" style="margin:0in;line-height:normal"><a name="_Hlk4059620"><i><span style="font-size:11.0pt">Bleeding</span></i></a></p><p class="C-BodyText" style="margin:0in;line-height:normal"></p><p class="C-BodyText" style="margin:0in;line-height:normal"><span style="font-size:11.0pt">Bleeding is a potential complication of thrombocytopenia subsequent to myeloablative conditioning and treatment with Zynteglo. The majority of all reported bleeding events were nonserious. A risk of bleeding exists before platelet engraftment and may continue after platelet engraftment in patients who have continued thrombocytopenia.   </span></p><p class="C-BodyText" style="margin:0in;line-height:normal"></p><p class="C-BodyText" style="margin:0in;line-height:normal"><span style="font-size:11.0pt">Following platelet engraftment, all patients maintained platelet levels of 20  10<sup>9</sup>/L. Median (min, max) times to unsupported platelet counts of 50  10<sup>9</sup>/L  and 100  10<sup>9</sup>/L were 51 (20, 268) days (N=45) and 63.5 (20, 1231) days (N=42), respectively (see section 4.4 for guidance on platelet monitoring and management).</span></p><p class="C-BodyText" style="margin:0in;line-height:normal"></p><p class="C-BodyText" style="margin:0in;line-height:normal"><i><span style="font-size:11.0pt">Hepatic veno-occlusive disease</span></i></p><p class="C-BodyText" style="margin:0in;line-height:normal"></p><p class="C-BodyText" style="margin:0in;line-height:normal"><span style="font-size:11.0pt">Serious events of hepatic VOD occurred in 11.1% of patients following myeloablative conditioning; 80% of these patients did not receive prophylaxis for VOD. All patients who experienced VOD received treatment with defibrotide and recovered. Patients with TDT may be at an increased risk of VOD following myeloablative conditioning compared with other patient populations.  </span></p><p class="C-BodyText" style="margin:0in;line-height:normal"></p><p class="C-BodyText" style="margin:0in;line-height:normal;page-break-after:avoid"><i><span style="font-size:11.0pt">Infusion related reactions to Zynteglo</span></i></p><p class="C-BodyText" style="margin:0in;line-height:normal;page-break-after:avoid"></p><p class="C-BodyText" style="margin:0in;line-height:normal;page-break-after:avoid"><span style="font-size:11.0pt">Pre-medication for infusion reactions was managed at physician discretion. Infusion related reactions to Zynteglo were observed in 13.3% of patients and occurred on the day of Zynteglo infusion. All reactions resolved and the majority were mild. Events included abdominal pain, dyspnoea, hot flush, and noncardiac chest pain in 11.1%, 2.2%, 2.2%, and 2.2% of patients, respectively.  </span></p><p class="C-BodyText" style="margin:0in;line-height:normal"><u><span style="font-size:11.0pt"></span></u></p><p class="C-BodyText" style="margin:0in;line-height:normal;page-break-after:avoid"><u><span style="font-size:11.0pt">Paediatric population</span></u></p><p class="C-BodyText" style="margin:0in;line-height:normal;page-break-after:avoid"><u><span style="font-size:11.0pt"></span></u></p><p class="C-BodyText" style="margin:0in;line-height:normal"><a name="_Hlk3021378"></a><a name="_Hlk2980904"><span style="font-size:11.0pt">According to available data, the frequency, type, and severity of adverse reactions in adolescents 1217 years of age are similar to adults with the exception that VOD and pyrexia occurred more frequently in adolescents.</span></a></p><p class="C-BodyText" style="margin:0in;line-height:normal"></p><p class="C-BodyText" style="margin:0in;line-height:normal"><u><span style="font-size:11.0pt">Reporting of suspected adverse reactions</span></u></p><p class="C-BodyText" style="margin:0in;line-height:normal"><u><span style="font-size:11.0pt"></span></u></p><p class="C-BodyText" style="margin:0in;line-height:normal"><span style="font-size:11.0pt">Reporting suspected adverse reactions after authorisation of the medicinal product is important. It allows continued monitoring of the benefit/risk balance of the medicinal product. Healthcare professionals are asked to report any suspected adverse reactions via <span style="background:lightgrey">the national reporting system listed in <span class="MsoHyperlink">Appendix V</span>.</span></span></p><p class="C-BodyText" style="margin:0in;line-height:normal"></p>
			</div>
		</text>
		
    	    
		
</section>
			    
    	    

			    
		               
<section>
			<title value="4.9     Overdose"/>
				<code>
					<coding>
						<system value="http://spor.ema.europa.eu/v1/example-sections"/>
						<code value="${document[n].section[n].subsection[n].typeCode}"/>
						<display value="${document[n].section[n].subsection[n].typeDisplay}"/>
					</coding>
				</code>
		<text>
			<status value="additional"/>
			<div xmlns="http://www.w3.org/1999/xhtml">
		    <p class="MsoNormal" style="margin-bottom:0in;line-height:normal"></p><p class="C-BodyText" style="margin:0in;line-height:normal"><span style="font-size:11.0pt">No data from clinical studies are available regarding overdose of Zynteglo. </span></p><p class="C-BodyText" style="margin:0in;line-height:normal"></p><p class="C-BodyText" style="margin:0in;line-height:normal"></p>
			</div>
		</text>
		
    	    
		
</section>
			    
    	    
		
</section>
			    
    	    
				
			    
						
		               
<section>
			<title value="5.       PHARMACOLOGICAL PROPERTIES"/>
				<code>
					<coding>
						<system value="http://spor.ema.europa.eu/v1/example-sections"/>
						<code value="${document[n].section[n].subsection[n].typeCode}"/>
						<display value="${document[n].section[n].subsection[n].typeDisplay}"/>
					</coding>
				</code>
		<text>
			<status value="additional"/>
			<div xmlns="http://www.w3.org/1999/xhtml">
		    <p class="C-BodyText" style="margin:0in;line-height:normal"></p>
			</div>
		</text>
		
    	    

			    
		               
<section>
			<title value="5.1     Pharmacodynamic properties"/>
				<code>
					<coding>
						<system value="http://spor.ema.europa.eu/v1/example-sections"/>
						<code value="${document[n].section[n].subsection[n].typeCode}"/>
						<display value="${document[n].section[n].subsection[n].typeDisplay}"/>
					</coding>
				</code>
		<text>
			<status value="additional"/>
			<div xmlns="http://www.w3.org/1999/xhtml">
		    <p class="C-BodyText" style="margin:0in;line-height:normal"></p><p class="C-BodyText" style="margin:0in;line-height:normal"><span style="font-size:11.0pt">Pharmacotherapeutic group: Other haematological agents, ATC code: B06AX02</span></p><p class="C-BodyText" style="margin:0in;line-height:normal"></p><p class="C-BodyText" style="margin:0in;line-height:normal"><u><span style="font-size:11.0pt">Mechanism of action</span></u></p><p class="C-BodyText" style="margin:0in;line-height:normal"><u><span style="font-size:11.0pt"></span></u></p><p class="C-BodyText" style="margin:0in;line-height:normal"><span style="font-size:11.0pt">Zynteglo adds functional copies of a modified -globin gene into the patients HSCs through transduction of autologous CD34<sup>+</sup> cells with BB305 LVV, thereby addressing the underlying genetic cause of the disease. After Zynteglo infusion, transduced CD34<sup>+</sup> HSCs engraft in the bone marrow and differentiate to produce RBCs containing biologically active <span style="color:black"><sup>AT87Q</sup>globin (a modified globin protein) that will combine with -globin to produce functional Hb containing </span><sup>AT87Q</sup>globin (Hb<span style="color:black">A<sup>T87Q</sup>). </span><sup>AT87Q</sup>globin can be quantified relative to other globin species in peripheral blood using high performance liquid chromatography.<sup>AT87Q</sup>globin expression is designed to correct the /globin imbalance in erythroid cells of patients with TDT and has the potential to increase total Hb to normal levels and eliminate dependence on chronic RBC transfusions. <a name="_Hlk2981031">Following successful engraftment and achievement of transfusion independence, the effects of the product are expected to be lifelong.</a></span></p><p class="C-BodyText" style="margin:0in;line-height:normal"></p><p class="C-BodyText" style="margin:0in;line-height:normal"><u><span style="font-size:11.0pt">Pharmacodynamic effects </span></u></p><p class="C-BodyText" style="margin:0in;line-height:normal"><u><span style="font-size:11.0pt"></span></u></p><p class="C-BodyText" style="margin:0in;line-height:normal"><span style="font-size:11.0pt">All patients with TDT with a non<sup>0</sup>/<sup>0</sup> genotype who received Zynteglo with at least 3 months of follow-up produced HbA<sup>T87Q</sup> (N=10, HGB204; N=4, HGB205; N=15, HGB207; N=3, HGB212). For patients with at least 6 months of follow-up, HbA<sup>T87Q</sup> generally increased steadily after Zynteglo infusion and stabilised by approximately Month 6. Patients had a Month 6 median (min, max) HbA<sup>T87Q</sup> of 4.901 (1.03, 9.59) g/dL in the Phase 1/2 studies (N=14, HGB204 and HGB205) and 9.409 (3.35, 10.60) g/dL in ongoing Phase 3 studies (N=16, HGB207 and HGB-212).  </span></p><p class="C-BodyText" style="margin:0in;line-height:normal"></p><p class="C-BodyText" style="margin:0in;line-height:normal"><span style="font-size:11.0pt">HbA<sup>T87Q</sup> remained generally stable through Month 24 with a median (min, max) of 6.444 (1.10, 10.13) g/dL in the completed Phase 1/2 studies (N=14, HGB204 and HGB205) and 8.766 (0.89, 11.40) g/dL in the ongoing Phase 3 studies (N=3, HGB207). HbA<sup>T87Q</sup> continued to be stable at last follow-up through Month 60, demonstrating stable integration of the <sup>AT87Q</sup>globin gene into longterm HSCs and stable expression of the <sup>AT87Q</sup>globin gene in cells of the erythroid lineage. <a name="IDX"></a></span></p><p class="MsoNormal" style="margin-bottom:0in;line-height:normal;text-autospace: none"></p><p class="C-BodyText" style="margin:0in;line-height:normal;page-break-after:avoid"><a name="_Hlk535595211"><u><span style="font-size:11.0pt">Clinical efficacy </span></u></a></p><p class="C-BodyText" style="margin:0in;line-height:normal;page-break-after:avoid"></p><p class="C-BodyText" style="margin:0in;line-height:normal"><span style="font-size:11.0pt">Efficacy was based on 32 adult and adolescent patients with TDT and a non<sup>0</sup>/<sup>0</sup> genotype treated with Zynteglo (N=10, HGB204; N=4, HGB205; N=15, HGB207; N=3, HGB212) (see Table 4). <a name="_Hlk2977601">A few patients have been included in the clinical studies with genotypes characterised by low endogenous globin production phenotypically similar to patients with a <sup>0</sup>/<sup>0</sup> genotype, such as patients homozygous for IVSI110 or IVSI5. </a></span></p><p class="C-BodyText" style="margin:0in;line-height:normal"></p><p class="C-BodyText" style="margin-top:0in;margin-right:0in;margin-bottom:0in; margin-left:1.0in;text-indent:-1.0in;line-height:normal"><b><span style="font-size:11.0pt">Table 4              Baseline characteristics for non<sup>0</sup>/<sup>0</sup> patients with TDT 12 years of age treated with Zynteglo (Studies HGB204, HGB205, HGB207, HGB212, LTF303)          </span></b></p><p class="C-BodyText" style="margin-top:0in;margin-right:0in;margin-bottom:0in; margin-left:1.0in;text-indent:-1.0in;line-height:normal"></p><table border="1" cellpadding="0" cellspacing="0" class="MsoTableGrid" style="border-collapse:collapse;border:none"> <tr style="height:48.6pt"> <td style="width:62.5pt;border:solid windowtext 1.0pt;   padding:0in 5.4pt 0in 5.4pt;height:48.6pt" valign="top" width="83"> <p class="C-BodyText" style="margin:0in;line-height:normal"><b><span style="font-size:11.0pt">Study</span></b></p> </td> <td style="width:76.65pt;border:solid windowtext 1.0pt;   border-left:none;padding:0in 5.4pt 0in 5.4pt;height:48.6pt" valign="top" width="102"> <p align="center" class="C-BodyText" style="margin:0in;text-align:center;   line-height:normal"><b><span lang="EN-GB" style="font-size:11.0pt">Total number   of patients </span></b></p> <p align="center" class="C-BodyText" style="margin:0in;text-align:center;   line-height:normal"><span lang="EN-GB" style="font-size:11.0pt">(young adults/ adolescents)</span></p> <p align="center" class="C-BodyText" style="margin:0in;text-align:center;   line-height:normal"></p> </td> <td style="width:67.6pt;border:solid windowtext 1.0pt;   border-left:none;padding:0in 5.4pt 0in 5.4pt;height:48.6pt" valign="top" width="90"> <p align="center" class="C-BodyText" style="margin:0in;text-align:center;   line-height:normal"><b><span style="font-size:11.0pt">Age</span></b></p> <p align="center" class="C-BodyText" style="margin:0in;text-align:center;   line-height:normal"><span style="font-size:11.0pt">(years)</span></p> <p align="center" class="C-BodyText" style="margin:0in;text-align:center;   line-height:normal"><span style="font-size:11.0pt">median (min, max)</span></p> </td> <td style="width:121.85pt;border:solid windowtext 1.0pt;   border-left:none;padding:0in 5.4pt 0in 5.4pt;height:48.6pt" valign="top" width="162"> <p align="center" class="C-BodyText" style="margin:0in;text-align:center;   line-height:normal"><b><span style="font-size:11.0pt">Pre-enrolment   transfusion volumes</span></b></p> <p align="center" class="C-BodyText" style="margin:0in;text-align:center;   line-height:normal"><span style="font-size:11.0pt">(mL/kg/year)</span></p> <p align="center" class="C-BodyText" style="margin:0in;text-align:center;   line-height:normal"><span style="font-size:11.0pt">median (min, max)</span></p> </td> <td style="width:125.15pt;border:solid windowtext 1.0pt;   border-left:none;padding:0in 5.4pt 0in 5.4pt;height:48.6pt" valign="top" width="167"> <p align="center" class="C-BodyText" style="margin:0in;text-align:center;   line-height:normal"><b><span style="font-size:11.0pt">Pre-enrolment   transfusion frequency</span></b></p> <p align="center" class="C-BodyText" style="margin:0in;text-align:center;   line-height:normal"><span style="font-size:11.0pt">(number/year)</span></p> <p align="center" class="C-BodyText" style="margin:0in;text-align:center;   line-height:normal"><span style="font-size:11.0pt">median (min, max)</span></p> </td> </tr> <tr style="height:11.9pt"> <td style="width:62.5pt;border:solid windowtext 1.0pt;   border-top:none;padding:0in 5.4pt 0in 5.4pt;height:11.9pt" valign="top" width="83"> <p class="C-BodyText" style="margin:0in;line-height:normal"><span style="font-size:11.0pt">HGB205</span></p> </td> <td style="width:76.65pt;border-top:none;border-left:   none;border-bottom:solid windowtext 1.0pt;border-right:solid windowtext 1.0pt;   padding:0in 5.4pt 0in 5.4pt;height:11.9pt" valign="top" width="102"> <p align="center" class="C-BodyText" style="margin:0in;text-align:center;   line-height:normal"><span style="font-size:11.0pt">4</span></p> <p align="center" class="C-BodyText" style="margin:0in;text-align:center;   line-height:normal"><span style="font-size:11.0pt">(2)</span></p> </td> <td style="width:67.6pt;border-top:none;border-left:none;   border-bottom:solid windowtext 1.0pt;border-right:solid windowtext 1.0pt;   padding:0in 5.4pt 0in 5.4pt;height:11.9pt" valign="top" width="90"> <p align="center" class="MsoNormal" style="margin-bottom:0in;text-align:center;   line-height:normal"><span style='font-family:"Times New Roman",serif'>young   adults/ adolescents*</span></p> </td> <td style="width:121.85pt;border-top:none;border-left:   none;border-bottom:solid windowtext 1.0pt;border-right:solid windowtext 1.0pt;   padding:0in 5.4pt 0in 5.4pt;height:11.9pt" valign="top" width="162"> <p align="center" class="MsoNormal" style="margin-bottom:0in;text-align:center;   line-height:normal"><span style='font-family:"Times New Roman",serif'>181.85</span></p> <p align="center" class="MsoNormal" style="margin-bottom:0in;text-align:center;   line-height:normal"><span style='font-family:"Times New Roman",serif'>(138.8,   197.3)</span></p> </td> <td style="width:125.15pt;border-top:none;border-left:   none;border-bottom:solid windowtext 1.0pt;border-right:solid windowtext 1.0pt;   padding:0in 5.4pt 0in 5.4pt;height:11.9pt" valign="top" width="167"> <p align="center" class="MsoNormal" style="margin-bottom:0in;text-align:center;   line-height:normal"><span style='font-family:"Times New Roman",serif'>12.50</span></p> <p align="center" class="MsoNormal" style="margin-bottom:0in;text-align:center;   line-height:normal"><span style='font-family:"Times New Roman",serif'>(10.5,   13.0) </span></p> </td> </tr> <tr style="height:11.9pt"> <td style="width:62.5pt;border:solid windowtext 1.0pt;   border-top:none;padding:0in 5.4pt 0in 5.4pt;height:11.9pt" valign="top" width="83"> <p class="C-BodyText" style="margin:0in;line-height:normal"><span style="font-size:11.0pt">HGB204</span></p> </td> <td style="width:76.65pt;border-top:none;border-left:   none;border-bottom:solid windowtext 1.0pt;border-right:solid windowtext 1.0pt;   padding:0in 5.4pt 0in 5.4pt;height:11.9pt" valign="top" width="102"> <p align="center" class="C-BodyText" style="margin:0in;text-align:center;   line-height:normal"><span style="font-size:11.0pt">10</span></p> <p align="center" class="C-BodyText" style="margin:0in;text-align:center;   line-height:normal"><span style="font-size:11.0pt">(2)</span></p> </td> <td style="width:67.6pt;border-top:none;border-left:none;   border-bottom:solid windowtext 1.0pt;border-right:solid windowtext 1.0pt;   padding:0in 5.4pt 0in 5.4pt;height:11.9pt" valign="top" width="90"> <p align="center" class="MsoNormal" style="margin-bottom:0in;text-align:center;   line-height:normal"><span style='font-family:"Times New Roman",serif'>19.5</span></p> <p align="center" class="C-BodyText" style="margin:0in;text-align:center;   line-height:normal"><span style="font-size:11.0pt">(16, 34)</span></p> </td> <td style="width:121.85pt;border-top:none;border-left:   none;border-bottom:solid windowtext 1.0pt;border-right:solid windowtext 1.0pt;   padding:0in 5.4pt 0in 5.4pt;height:11.9pt" valign="top" width="162"> <p align="center" class="MsoNormal" style="margin-bottom:0in;text-align:center;   line-height:normal"><span style='font-family:"Times New Roman",serif'>151.28</span></p> <p align="center" class="C-BodyText" style="margin:0in;text-align:center;   line-height:normal"><span style="font-size:11.0pt">(140.0, 234.5)</span></p> </td> <td style="width:125.15pt;border-top:none;border-left:   none;border-bottom:solid windowtext 1.0pt;border-right:solid windowtext 1.0pt;   padding:0in 5.4pt 0in 5.4pt;height:11.9pt" valign="top" width="167"> <p align="center" class="MsoNormal" style="margin-bottom:0in;text-align:center;   line-height:normal"><span style='font-family:"Times New Roman",serif'>13.75</span></p> <p align="center" class="C-BodyText" style="margin:0in;text-align:center;   line-height:normal"><span style="font-size:11.0pt">(10.0, 16.5)</span></p> </td> </tr> <tr style="height:11.9pt"> <td style="width:62.5pt;border:solid windowtext 1.0pt;   border-top:none;padding:0in 5.4pt 0in 5.4pt;height:11.9pt" valign="top" width="83"> <p class="C-BodyText" style="margin:0in;line-height:normal"><span style="font-size:11.0pt">HGB207</span></p> </td> <td style="width:76.65pt;border-top:none;border-left:   none;border-bottom:solid windowtext 1.0pt;border-right:solid windowtext 1.0pt;   padding:0in 5.4pt 0in 5.4pt;height:11.9pt" valign="top" width="102"> <p align="center" class="C-BodyText" style="margin:0in;text-align:center;   line-height:normal"><span style="font-size:11.0pt">15</span></p> <p align="center" class="C-BodyText" style="margin:0in;text-align:center;   line-height:normal"><span style="font-size:11.0pt">(6)</span></p> </td> <td style="width:67.6pt;border-top:none;border-left:none;   border-bottom:solid windowtext 1.0pt;border-right:solid windowtext 1.0pt;   padding:0in 5.4pt 0in 5.4pt;height:11.9pt" valign="top" width="90"> <p align="center" class="MsoNormal" style="margin-bottom:0in;text-align:center;   line-height:normal"><span style='font-family:"Times New Roman",serif'>20.0</span></p> <p align="center" class="C-BodyText" style="margin:0in;text-align:center;   line-height:normal"><span style="font-size:11.0pt">(12, 34)</span></p> </td> <td style="width:121.85pt;border-top:none;border-left:   none;border-bottom:solid windowtext 1.0pt;border-right:solid windowtext 1.0pt;   padding:0in 5.4pt 0in 5.4pt;height:11.9pt" valign="top" width="162"> <p align="center" class="MsoNormal" style="margin-bottom:0in;text-align:center;   line-height:normal"><span style='font-family:"Times New Roman",serif'>192.92</span></p> <p align="center" class="C-BodyText" style="margin:0in;text-align:center;   line-height:normal"><span style="font-size:11.0pt">(152.3, 251.3)</span></p> </td> <td style="width:125.15pt;border-top:none;border-left:   none;border-bottom:solid windowtext 1.0pt;border-right:solid windowtext 1.0pt;   padding:0in 5.4pt 0in 5.4pt;height:11.9pt" valign="top" width="167"> <p align="center" class="MsoNormal" style="margin-bottom:0in;text-align:center;   line-height:normal"><span style='font-family:"Times New Roman",serif'>17.50</span></p> <p align="center" class="C-BodyText" style="margin:0in;text-align:center;   line-height:normal"><span style="font-size:11.0pt">(11.5, 37.0)</span></p> </td> </tr> <tr style="height:12.3pt"> <td style="width:62.5pt;border:solid windowtext 1.0pt;   border-top:none;padding:0in 5.4pt 0in 5.4pt;height:12.3pt" valign="top" width="83"> <p class="C-BodyText" style="margin:0in;line-height:normal"><span style="font-size:11.0pt">HGB212</span></p> </td> <td style="width:76.65pt;border-top:none;border-left:   none;border-bottom:solid windowtext 1.0pt;border-right:solid windowtext 1.0pt;   padding:0in 5.4pt 0in 5.4pt;height:12.3pt" valign="top" width="102"> <p align="center" class="C-BodyText" style="margin:0in;text-align:center;   line-height:normal"><span style="font-size:11.0pt">3</span></p> <p align="center" class="C-BodyText" style="margin:0in;text-align:center;   line-height:normal"><span style="font-size:11.0pt">(1)</span></p> </td> <td style="width:67.6pt;border-top:none;border-left:none;   border-bottom:solid windowtext 1.0pt;border-right:solid windowtext 1.0pt;   padding:0in 5.4pt 0in 5.4pt;height:12.3pt" valign="top" width="90"> <p align="center" class="C-BodyText" style="margin:0in;text-align:center;   line-height:normal"><span lang="PT">adults/ adolescents*</span></p> </td> <td style="width:121.85pt;border-top:none;border-left:   none;border-bottom:solid windowtext 1.0pt;border-right:solid windowtext 1.0pt;   padding:0in 5.4pt 0in 5.4pt;height:12.3pt" valign="top" width="162"> <p align="center" class="MsoNormal" style="margin-bottom:0in;text-align:center;   line-height:normal"><span style='font-family:"Times New Roman",serif'>175.51</span></p> <p align="center" class="C-BodyText" style="margin:0in;text-align:center;   line-height:normal"><span style="font-size:11.0pt">(170.7, 209.6)</span></p> </td> <td style="width:125.15pt;border-top:none;border-left:   none;border-bottom:solid windowtext 1.0pt;border-right:solid windowtext 1.0pt;   padding:0in 5.4pt 0in 5.4pt;height:12.3pt" valign="top" width="167"> <p align="center" class="MsoNormal" style="margin-bottom:0in;text-align:center;   line-height:normal"><span style='font-family:"Times New Roman",serif'>21.50</span></p> <p align="center" class="C-BodyText" style="margin:0in;text-align:center;   line-height:normal"><span style="font-size:11.0pt">(17.5, 39.5)</span></p> </td> </tr> </table><p class="C-BodyText" style="margin:0in;line-height:normal"><span style="font-size:11.0pt">*Age range is not provided to protect patient identity.</span></p><p class="C-BodyText" style="margin:0in;line-height:normal"></p><p class="C-BodyText" style="margin:0in;line-height:normal"><i><span style="font-size:11.0pt">Transfusiondependent thalassaemia (TDT)</span></i></p><p class="C-BodyText" style="margin:0in;line-height:normal"><a name="_Hlk2977740"></a></p><p class="C-BodyText" style="margin:0in;line-height:normal"><span style="font-size:11.0pt">Patients were considered to be transfusiondependent if they had a history of transfusions of at least 100 mL/kg/year of RBCs or with 8 transfusions of RBCs per year in the 2 years preceding enrolment. In the clinical studies, patients received a median (min, max) RBC transfusion volume of 175.74 (138.8, 251.3) mL/kg/year and a median (min, max) number of 14.75 (10.0, 39.5) RBC transfusions per year. </span></p><p class="C-BodyText" style="margin:0in;line-height:normal"></p><p class="C-BodyText" style="margin:0in;line-height:normal"><span style="font-size:11.0pt">Adolescents were excluded from Phase 3 studies if they had a known and available HLAmatched related HSC donor. The median (min, max) age in the studies was 19.0 (12, 34) years, 56.3% were females, 59.4% were Asian, and 40.6% White/Caucasian. All patients had a Karnofsky/Lansky performance score 80 and the majority (18/32, 56.3%) had a performance score of 100 at baseline. Cardiac T2* at baseline was &gt;20 msec. The median (min, max) serum ferritin at baseline was 3778.7 (784, 22517) pmol/L and median (min, max) liver iron concentration was 6.75 (1.0, 41.0) mg/g (N=10, HGB204; N=4, HGB205; N=15, HGB207; N=3, HGB212).</span></p><p class="C-BodyText" style="margin:0in;line-height:normal"></p><p class="C-BodyText" style="margin:0in;line-height:normal"><i><span style="font-size:11.0pt">Mobilisation and apheresis</span></i></p><p class="C-BodyText" style="margin:0in;line-height:normal"><a name="_Hlk433984"></a></p><p class="C-BodyText" style="margin:0in;line-height:normal"><span style="font-size:11.0pt">All patients were administered GCSF and plerixafor to mobilise stem cells prior to the apheresis procedure. The planned dose of GCSF was 10 g/kg/day in patients with a spleen, and 5 g/kg/day in patients without a spleen, given on Days 1 through 5 of mobilisation in the morning. The planned dose of plerixafor was 0.24 mg/kg/day, given on Days 4 and 5 of mobilisation in the evening. If a third day of collection was needed, plerixafor and GCSF dosing was extended to Day 6. The dose of GCSF was decreased by half if white blood cell (WBC) count was &gt;100  10<sup>9</sup>/L prior to the day of apheresis. For most patients, the minimum number of CD34<sup>+</sup> cells to manufacture Zynteglo was collected with 1 cycle of mobilisation and apheresis. </span></p><p class="C-BodyText" style="margin:0in;line-height:normal"></p><p class="C-BodyText" style="margin:0in;line-height:normal;page-break-after:avoid"><i><span style="font-size:11.0pt">Pre-treatment conditioning</span></i></p><p class="C-BodyText" style="margin:0in;line-height:normal;page-break-after:avoid"></p><p class="C-BodyText" style="margin:0in;line-height:normal;page-break-after:avoid"><span style="font-size:11.0pt">All patients received full myeloablative conditioning with busulfan prior to treatment with Zynteglo. The planned dose of busulfan was 3.2 mg/kg/day for patients 18 years as a 3hour IV infusion daily for 4 days with a recommended target AUC<sub>0-24h </sub>of 38004500 M*min. The planned dose of busulfan was 0.8 mg/kg for patients 1217 years of age as a 2hour IV infusion every 6 hours for a total of 16 doses with a recommended target of AUC<sub>0-6h </sub>of 9501125 M*min. The busulfan SmPC was used for information on appropriate method for determination of patient weightbased dosing. <a name="_Hlk2978225">Busulfan dose adjustments were made as needed based on pharmacokinetic monitoring.</a></span></p><p class="C-BodyText" style="margin:0in;line-height:normal"></p><p class="C-BodyText" style="margin:0in;line-height:normal"><span style="font-size:11.0pt">The median (min, max) busulfan dose was 3.50 (2.5, 5.0) mg/kg/day (N=32). AUC<sub>0-24h</sub> was measured during Day 1 and informed the dose for Day 3; the median (min, max) estimated daily AUC was 4394.5 (3030, 9087) M*min (N=32). All patients with non<sup>0</sup>/<sup>0</sup> genotypes received anti-seizure prophylaxis with agents other than phenytoin prior to initiating busulfan. Phenytoin was not used for anti-seizure prophylaxis because of its well understood induction of glutathioneStransferase and cytochrome P450 and resultant increased clearance of busulfan, and because of the widespread availability of effective antiseizure medications that do not affect busulfan metabolism.</span></p><p class="C-BodyText" style="margin:0in;line-height:normal"></p><p class="C-BodyText" style="margin:0in;line-height:normal"><span style="font-size:11.0pt">In HGB207 and HGB212 prophylaxis for VOD/hepatic sinusoidal obstruction syndrome was required per institutional practice with ursodeoxycholic acid or defibrotide. </span></p><p class="C-BodyText" style="margin:0in;line-height:normal"></p><p class="C-BodyText" style="margin:0in;line-height:normal"><i><span style="font-size:11.0pt">Zynteglo administration</span></i></p><p class="C-BodyText" style="margin:0in;line-height:normal"></p><p class="C-BodyText" style="margin:0in;line-height:normal"><span style="font-size:11.0pt">All patients were administered Zynteglo with a median (min, max) dose of 7.80  10<sup>6 </sup>(5.0, 19.4) CD34<sup>+</sup> cells/kg as an intravenous infusion (N=32).</span></p><p class="C-BodyText" style="margin:0in;line-height:normal"></p><p class="C-BodyText" style="margin:0in;line-height:normal"><a name="_Hlk956286"></a><a name="_Hlk955665"><i><span style="font-size:11.0pt">After Zynteglo administration</span></i></a></p><p class="C-BodyText" style="margin:0in;line-height:normal"></p><p class="C-BodyText" style="margin:0in;line-height:normal"><span style="font-size:11.0pt">A total of 31.1% of patients (14/45; HGB204, HGB205, HGB207, HGB212) received GCSF within 21 days after Zynteglo infusion</span><span style="font-size:11.0pt">. However, GCSF use was not recommended for 21 days after Zynteglo infusion in Phase 3 studies.</span></p><p class="C-BodyText" style="margin:0in;line-height:normal"></p><p class="C-BodyText" style="margin:0in;line-height:normal"><u><span style="font-size:11.0pt">Studies HGB204 and HGB205</span></u></p><p class="C-BodyText" style="margin:0in;line-height:normal"><u><span style="font-size:11.0pt"></span></u></p><p class="C-BodyText" style="margin:0in;line-height:normal"><span style="font-size:11.0pt">HGB204 and HGB205 were Phase 1/2 open-label, single-arm 24month studies that included 22 patients with TDT treated with Zynteglo (N=18, HGB204; N=4, HGB205), of whom 14 had a non<sup>0</sup>/<sup>0</sup> genotype (N=10, HGB204; N=4, HGB205) and 8 had a <sup>0</sup>/<sup>0</sup> genotype in HGB204. All patients completed HGB204 and HGB205 and enrolled for longterm followup in the LTF303 study. The median (min, max) duration of follow-up of patients with a non<sup>0</sup>/<sup>0</sup> genotype was 44.63 (35.8, 61.3)months. <a name="_Hlk4078994">All patients remain alive at last follow-up.   </a></span></p><p class="C-BodyText" style="margin:0in;line-height:normal"></p><p class="C-BodyText" style="margin:0in;line-height:normal"><span style="font-size:11.0pt">The primary endpoint was transfusion independence (TI) by Month 24, defined as a weighted average Hb 9 g/dL without any RBC transfusions for a continuous period of 12 months at any time during the study after infusion of Zynteglo. Of the patients with a non<sup>0</sup>/<sup>0</sup> genotype, 11/14 (78.6%, 95% CI 49.2%95.3%) achieved TI by Month 24 (Table 5). Among these 11 patients, the median (min, max) weighted average Hb during TI was 10.51 (9.3, 13.3) g/dL (Table 5). </span></p><p class="C-BodyText" style="margin:0in;line-height:normal"></p><p class="C-BodyText" style="margin:0in;line-height:normal"><span style="font-size:11.0pt">All patients who have achieved TI at any time have maintained TI at Month 36 with a min, max duration of TI of 28.3+, 57.6+ months (N=11). The median (min, max) time to last RBC transfusion was 0.46 (0.2, 5.8)months following Zynteglo infusion. </span></p><p class="C-BodyText" style="margin:0in;line-height:normal"></p><p class="C-BodyText" style="margin:0in;line-height:normal"><span style="font-size:11.0pt">In the 3 patients who did not achieve TI, reductions of 100%, 86.9% and 26.8% in transfusion volume requirements and of 100%, 85.3% and 20.7% in transfusion frequency were observed between Month 6 through Month 24 visit when compared to their pre-study levels of RBC transfusions. Reductions in volume and frequency were maintained at last followup in LTF303.</span></p><p class="C-BodyText" style="margin:0in;line-height:normal"></p><p class="C-BodyText" style="margin:0in;line-height:normal"><span style="font-size:11.0pt">The median (min, max) total Hb at Month 6 for patients who had not received a transfusion for the prior 60 days was 10.60 (7.6, 13.4) g/dL (N=11). Total Hb remained stable at Month 24 with a median (min, max) of 10.60 (8.8, 13.7) g/dL (N=12) and at Month 36 with a median (min, max) of 10.60 (7.8, 13.5) g/dL (N=13). </span></p><p class="C-BodyText" style="margin:0in;line-height:normal"></p><p class="MsoCommentText" style="margin-bottom:0in;line-height:normal"><span style='font-size:11.0pt;font-family:"Times New Roman",serif'>After Zynteglo infusion, patient iron chelation was managed at physician discretion. Of the 14 non<sup>0/</sup><sup>0</sup> patients treated in HGB204 and HGB205 that completed Month 6, 9 patients (64.3%) reported ongoing chelation use at last follow-up. The remaining 5 patients (35.7%) had stopped iron chelation, of whom 4 patients (28.6%) have stopped chelation for at least 6 months with median (min, max) time from stopping chelation to last follow-up of 26.40 (11.5, 42.2) months for these 4 patients. Additionally, of the 14 treated patients, 3 patients in HGB205 (21.4%) received phlebotomy to remove iron. For the 11 patients that achieved TI, 4 patients (36.4%) stopped chelation for at least 6 months and 3 patients (27.3%) received phlebotomy.</span></p><p class="C-BodyText" style="margin:0in;line-height:normal"></p><p class="C-BodyText" style="margin:0in;line-height:normal"><a name="_Hlk4398701"><span style="font-size:11.0pt">At 48 months after infusion of Zynteglo for patients who achieved TI, the median reduction (min, max) in serum ferritin levels from baseline was 70.00% (39.2, 84.8) (N=5, HGB204; N=2, HGB205). The median reduction in liver iron content from baseline was 62.50%, ranging from an 83.3% reduction to a 269.2% increase (N=5, HGB204; N=2, HGB205).</span></a></p><p class="C-BodyText" style="margin:0in;line-height:normal"></p><p class="C-BodyText" style="margin:0in;line-height:normal"><u><span style="font-size:11.0pt">Studies HGB207 and HGB212</span></u></p><p class="C-BodyText" style="margin:0in;line-height:normal"><u><span style="font-size:11.0pt"></span></u></p><p class="C-BodyText" style="margin:0in;line-height:normal"><a name="_Hlk774161"><span style="font-size:11.0pt">HGB207 and HGB212 are ongoing Phase 3 openlabel, single-arm 24month studies that are planned to include approximately 39 adults, adolescents, and children with TDT (N=23, HGB207; N=16, HGB212), of whom 29 have a non<sup>0</sup>/<sup>0</sup> genotype (N=23, HGB207; N=6, HGB212) and 10 have a <sup>0</sup>/<sup>0</sup> genotype in HGB212. </span></a><span style="font-size:11.0pt">These studies are conducted with improved transduction compared to Phase 1/2 studies, resulting in increased average number of functional copies of the transgene (<sup>AT87Q</sup>globin) integrated in the autologous CD34<sup>+</sup> cells. <a name="_Hlk4244937">Eighteen adults and adolescents with TDT with a non<sup>0</sup>/<sup>0</sup> genotype have been treated with Zynteglo in Phase 3 studies (N=15, HGB207; N=3, HGB212) and their median (min, max) duration of follow-up was 15.92 (5.6, 26.3) months.</a> <a name="_Hlk4079020">All patients remain alive at last followup.</a></span></p><p class="C-BodyText" style="margin:0in;line-height:normal"></p><p class="C-BodyText" style="margin:0in;line-height:normal"><span style="font-size:11.0pt">The primary endpoint was transfusion independence (TI) by Month 24, defined as a weighted average Hb 9 g/dL without any RBC transfusions for a continuous period of 12 months at any time during the study after infusion of Zynteglo. Ten patients are evaluable for assessment of TI. Of these, 9/10 (90.0%, 95% CI 55.599.7%) achieved TI at last followup. Among these 9 patients, the median (min, max) weighted average Hb during TI was 12.22 (11.4, 12.8) g/dL (Table 5). </span></p><p class="C-BodyText" style="margin:0in;line-height:normal"></p><p class="C-BodyText" style="margin:0in;line-height:normal"><span style="font-size:11.0pt">All patients who have achieved TI have maintained TI with a min, max duration of TI of 12.1+, 21.3+ months (N=9). The median (min, max) time to last RBC transfusion was 1.08 (0.5, 2.2) months following Zynteglo infusion. </span></p><p class="C-BodyText" style="margin:0in;line-height:normal"></p><p class="C-BodyText" style="margin:0in;line-height:normal"><a name="_Hlk517114053"><span style="font-size:11.0pt">For the only patient who did not achieve TI, a reduction of 51.5% in transfusion volume requirements and a reduction of 43.4% in transfusion frequency were observed from Month 12 to Month 24 when compared to their pre-study levels of RBC transfusions. </span></a></p><p class="C-BodyText" style="margin:0in;line-height:normal"></p><p class="C-BodyText" style="margin:0in;line-height:normal"><span style="font-size:11.0pt">The median (min, max) total Hb at Month 6 for patients who had not received a transfusion for the prior 60 days was 11.85 (8.4, 13.3) g/dL (N=18). Total Hb remained stable at Month 24 with a median (min, max) of 12.85 (12.5, 13.2) g/dL (N=2).</span></p><p class="C-BodyText" style="margin:0in;line-height:normal"></p><p class="C-BodyText" style="margin:0in;line-height:normal"><a name="_Hlk536092762"><span style="font-size:11.0pt">After Zynteglo infusion, patient iron chelation was managed at physician discretion. Of the 18 non<sup>0</sup>/<sup>0</sup> patients treated in HGB207 and HGB212 that completed Month 6, 5 patients (27.8%) reported ongoing chelation use at last follow-up. The remaining 13 patients (72.2%) had stopped iron chelation, of whom 9 patients (50.0%) have stopped chelation for at least 6 months with median (min, max) time from stopping chelation to last follow-up of 16.89 (6.9, 25.4) months for these 9 patients. Additionally, of the 18 treated patients, 5 patients in HGB207 (27.8%) received phlebotomy to remove iron. For the 9 patients that achieved TI, 6 patients (66.7%) stopped chelation for at least 6 months and 2 patients (22.2%) received phlebotomy.</span></a></p><p class="C-BodyText" style="margin:0in;line-height:normal"> </p><p class="C-BodyText" style="margin:0in;line-height:normal"><span style="font-size:11.0pt">Exploratory analyses were performed to evaluate resolution of dyserythropoiesis, the fundamental pathophysiological characteristic of TDT, in the bone marrow. Bone marrow biopsies taken before treatment were consistent with a diagnosis of TDT, including a low myeloid/erythroid ratio (N=15, HGB207; N=3, HGB212), reflective of erythroid hyperplasia. For 9 patients who achieved TI and had a Month 12 bone marrow assessment, myeloid/erythroid ratios increased from a median (min, max) of 0.2 (0.1 to 0.7) at baseline to a median (min, max) of 0.83 (0.6 to 1.9) at Month 12 after Zynteglo infusion, suggesting that Zynteglo improves erythropoiesis in patients with TDT. </span></p><p class="C-BodyText" style="margin:0in;line-height:normal"><a name="_Ref442134"><u><span style="font-size:11.0pt"></span></u></a></p><p class="C-BodyText" style="margin:0in;line-height:normal;page-break-after:avoid"><u><span style="font-size:11.0pt">Overall results</span></u></p><p class="C-BodyText" style="margin:0in;line-height:normal;page-break-after:avoid"></p><p class="MsoCaption" style="margin-top:0in;margin-right:0in;margin-bottom:0in; margin-left:1.0in;line-height:normal"><span style="font-size:11.0pt">Figure </span><span style="font-size:11.0pt">1            Median total haemoglobin over time in non-<sup>0</sup>/<sup>0</sup> TDT patients treated with Zynteglo who have achieved transfusion independence (Studies HGB204, HGB205, HGB207, LTF303)</span></p><p class="Default" style="text-align:justify;text-justify:inter-ideograph"><span lang="EN-GB"><img height="336" id="Picture 3" src="#image1" width="576"/></span></p><p class="MsoNormal" style="margin-bottom:0in;line-height:normal;text-autospace: none"><i><span style='font-family:"Times New Roman",serif'>Bars represent interquartile ranges.</span></i></p><p class="MsoNormal" style="margin-bottom:0in;line-height:normal;text-autospace: none"><a name="_Hlk31017224"><i><span style='font-family:"Times New Roman",serif'>Total Hb represents those without any acute or chronic RBC transfusions within 60 days prior to the measurement date.</span></i></a></p><p class="MsoNormal" style="margin-bottom:0in;line-height:normal"><a name="_Hlk4231781"></a></p><p class="MsoNormal" style="margin-top:0in;margin-right:0in;margin-bottom:0in; margin-left:1.0in;text-indent:-1.0in;line-height:normal;page-break-before:always"><b><span style='font-family:"Times New Roman",serif'>Table 5              Efficacy outcomes for non<sup>0</sup>/<sup>0</sup> TDT patients treated with Zynteglo (Studies HGB204, HGB205, HGB207, HGB212, LTF303)</span></b></p><p class="MsoNormal" style="margin-top:0in;margin-right:0in;margin-bottom:0in; margin-left:1.0in;text-indent:-1.0in;line-height:normal"></p><table border="1" cellpadding="0" cellspacing="0" class="MsoTableGrid" style="border-collapse:collapse;border:none" width="591"> <thead> <tr style="height:71.3pt"> <td style="width:.9in;border:solid windowtext 1.0pt;    padding:0in 5.4pt 0in 5.4pt;height:71.3pt" valign="top" width="86"> <p align="center" class="MsoNormal" style="margin-bottom:0in;text-align:center;    line-height:normal"><b><span style='font-family:"Times New Roman",serif'>HbA<sup>T87Q</sup>    at 6 months</span></b></p> <p align="center" class="MsoNormal" style="margin-bottom:0in;text-align:center;    line-height:normal"><span style='font-family:"Times New Roman",serif'>(g/dL)</span></p> <p align="center" class="MsoNormal" style="margin-bottom:0in;text-align:center;    line-height:normal"><span style='font-family:"Times New Roman",serif'>n</span></p> <p align="center" class="MsoNormal" style="margin-bottom:0in;text-align:center;    line-height:normal"><span style='font-family:"Times New Roman",serif'>median    (min, max)</span></p> </td> <td style="width:.9in;border:solid windowtext 1.0pt;    border-left:none;padding:0in 5.4pt 0in 5.4pt;height:71.3pt" valign="top" width="86"> <p align="center" class="MsoNormal" style="margin-bottom:0in;text-align:center;    line-height:normal"><b><span style='font-family:"Times New Roman",serif'>HbA<sup>T87Q    </sup>at 24 months</span></b></p> <p align="center" class="MsoNormal" style="margin-bottom:0in;text-align:center;    line-height:normal"><span style='font-family:"Times New Roman",serif'>(g/dL)</span></p> <p align="center" class="MsoNormal" style="margin-bottom:0in;text-align:center;    line-height:normal"><span style='font-family:"Times New Roman",serif'>n</span></p> <p align="center" class="MsoNormal" style="margin-bottom:0in;text-align:center;    line-height:normal"><span style='font-family:"Times New Roman",serif'>median</span></p> <p align="center" class="MsoNormal" style="margin-bottom:0in;text-align:center;    line-height:normal;text-autospace:none"><span style='font-family:"Times New Roman",serif'>(min,    max)</span></p> </td> <td style="width:.9in;border:solid windowtext 1.0pt;    border-left:none;padding:0in 5.4pt 0in 5.4pt;height:71.3pt" valign="top" width="86"> <p align="center" class="MsoNormal" style="margin-bottom:0in;text-align:center;    line-height:normal"><b><span style='font-family:"Times New Roman",serif'>Hb    at 6 months*</span></b></p> <p align="center" class="MsoNormal" style="margin-bottom:0in;text-align:center;    line-height:normal"><span style='font-family:"Times New Roman",serif'>(g/dL)</span></p> <p align="center" class="MsoNormal" style="margin-bottom:0in;text-align:center;    line-height:normal"><span style='font-family:"Times New Roman",serif'>n</span></p> <p align="center" class="MsoNormal" style="margin-bottom:0in;text-align:center;    line-height:normal"><span style='font-family:"Times New Roman",serif'>median</span></p> <p align="center" class="MsoNormal" style="margin-bottom:0in;text-align:center;    line-height:normal;text-autospace:none"><span style='font-family:"Times New Roman",serif'>(min,    max)</span></p> </td> <td style="width:65.5pt;border:solid windowtext 1.0pt;    border-left:none;padding:0in 5.4pt 0in 5.4pt;height:71.3pt" valign="top" width="87"> <p align="center" class="MsoNormal" style="margin-bottom:0in;text-align:center;    line-height:normal"><b><span style='font-family:"Times New Roman",serif'>Hb    at 24 months*</span></b></p> <p align="center" class="MsoNormal" style="margin-bottom:0in;text-align:center;    line-height:normal"><span style='font-family:"Times New Roman",serif'>(g/dL)</span></p> <p align="center" class="MsoNormal" style="margin-bottom:0in;text-align:center;    line-height:normal"><span style='font-family:"Times New Roman",serif'>n</span></p> <p align="center" class="MsoNormal" style="margin-bottom:0in;text-align:center;    line-height:normal"><span style='font-family:"Times New Roman",serif'>median</span></p> <p align="center" class="MsoNormal" style="margin-bottom:0in;text-align:center;    line-height:normal;text-autospace:none"><span style='font-family:"Times New Roman",serif'>(min,    max)</span></p> </td> <td style="width:.75in;border:solid windowtext 1.0pt;    border-left:none;padding:0in 5.4pt 0in 5.4pt;height:71.3pt" valign="top" width="72"> <p align="center" class="MsoNormal" style="margin-bottom:0in;text-align:center;    line-height:normal"><b><span lang="FR" style='font-family:"Times New Roman",serif'>TI**</span></b></p> <p align="center" class="MsoNormal" style="margin-bottom:0in;text-align:center;    line-height:normal"><span lang="FR" style='font-family:"Times New Roman",serif'>n/N^    </span></p> <p align="center" class="MsoNormal" style="margin-bottom:0in;text-align:center;    line-height:normal"><span lang="FR" style='font-family:"Times New Roman",serif'>(%)</span></p> <p align="center" class="MsoNormal" style="margin-bottom:0in;text-align:center;    line-height:normal;text-autospace:none"><span lang="FR" style='font-family:    "Times New Roman",serif'>[95% CI]</span></p> </td> <td style="width:.9in;border:solid windowtext 1.0pt;    border-left:none;padding:0in 5.4pt 0in 5.4pt;height:71.3pt" valign="top" width="86"> <p align="center" class="MsoNormal" style="margin-bottom:0in;text-align:center;    line-height:normal"><b><span lang="DA" style='font-family:"Times New Roman",serif'>WA    Hb during TI </span></b><span lang="DA" style='font-family:"Times New Roman",serif'>(g/dL)</span></p> <p align="center" class="MsoNormal" style="margin-bottom:0in;text-align:center;    line-height:normal"><span style='font-family:"Times New Roman",serif'>n</span></p> <p align="center" class="MsoNormal" style="margin-bottom:0in;text-align:center;    line-height:normal"><span style='font-family:"Times New Roman",serif'>median</span></p> <p align="center" class="MsoNormal" style="margin-bottom:0in;text-align:center;    line-height:normal;text-autospace:none"><span style='font-family:"Times New Roman",serif'>(min,    max)</span></p> </td> <td style="width:.9in;border:solid windowtext 1.0pt;    border-left:none;padding:0in 5.4pt 0in 5.4pt;height:71.3pt" valign="top" width="86"> <p align="center" class="MsoNormal" style="margin-bottom:0in;text-align:center;    line-height:normal"><b><span style='font-family:"Times New Roman",serif'>Duration    of TI</span></b></p> <p align="center" class="MsoNormal" style="margin-bottom:0in;text-align:center;    line-height:normal"><span style='font-family:"Times New Roman",serif'>(months)</span></p> <p align="center" class="MsoNormal" style="margin-bottom:0in;text-align:center;    line-height:normal"><span style='font-family:"Times New Roman",serif'>n</span></p> <p align="center" class="MsoNormal" style="margin-bottom:0in;text-align:center;    line-height:normal"><span style='font-family:"Times New Roman",serif'>median</span></p> <p align="center" class="MsoNormal" style="margin-bottom:0in;text-align:center;    line-height:normal"><span style='font-family:"Times New Roman",serif'>(min,    max)</span></p> </td> </tr> </thead> <tr style="height:2.35pt"> <td colspan="7" style="width:443.5pt;border:solid windowtext 1.0pt;   border-top:none;background:#D9D9D9;padding:0in 5.4pt 0in 5.4pt;height:2.35pt" valign="top" width="591"> <p class="MsoNormal" style="margin-bottom:0in;line-height:normal;page-break-after:   avoid"><span style='font-family:"Times New Roman",serif;color:black'>HGB-205</span></p> </td> </tr> <tr style="height:37.55pt"> <td style="width:.9in;border:solid windowtext 1.0pt;   border-top:none;padding:0in 5.4pt 0in 5.4pt;height:37.55pt" valign="top" width="86"> <p align="center" class="MsoNormal" style="margin-bottom:0in;text-align:center;   line-height:normal"><span style='font-family:"Times New Roman",serif'>4</span></p> <p align="center" class="MsoNormal" style="margin-bottom:0in;text-align:center;   line-height:normal"><span style='font-family:"Times New Roman",serif'>7.543</span></p> <p align="center" class="MsoNormal" style="margin-bottom:0in;text-align:center;   line-height:normal;text-autospace:none"><span style='font-family:"Times New Roman",serif'>(4.94,   9.59)</span></p> </td> <td style="width:.9in;border-top:none;border-left:none;   border-bottom:solid windowtext 1.0pt;border-right:solid windowtext 1.0pt;   padding:0in 5.4pt 0in 5.4pt;height:37.55pt" valign="top" width="86"> <p align="center" class="MsoNormal" style="margin-bottom:0in;text-align:center;   line-height:normal"><span style='font-family:"Times New Roman",serif'>4</span></p> <p align="center" class="MsoNormal" style="margin-bottom:0in;text-align:center;   line-height:normal"><span style='font-family:"Times New Roman",serif'>8.147</span></p> <p align="center" class="MsoNormal" style="margin-bottom:0in;text-align:center;   line-height:normal;text-autospace:none"><span style='font-family:"Times New Roman",serif'>(6.72,   10.13)</span></p> </td> <td style="width:.9in;border-top:none;border-left:none;   border-bottom:solid windowtext 1.0pt;border-right:solid windowtext 1.0pt;   padding:0in 5.4pt 0in 5.4pt;height:37.55pt" valign="top" width="86"> <p align="center" class="MsoNormal" style="margin-bottom:0in;text-align:center;   line-height:normal"><span style='font-family:"Times New Roman",serif'>4</span></p> <p align="center" class="MsoNormal" style="margin-bottom:0in;text-align:center;   line-height:normal"><span style='font-family:"Times New Roman",serif'>10.73</span></p> <p align="center" class="MsoNormal" style="margin-bottom:0in;text-align:center;   line-height:normal;text-autospace:none"><span style='font-family:"Times New Roman",serif'>(7.6,   13.4)</span></p> </td> <td style="width:65.5pt;border-top:none;border-left:none;   border-bottom:solid windowtext 1.0pt;border-right:solid windowtext 1.0pt;   padding:0in 5.4pt 0in 5.4pt;height:37.55pt" valign="top" width="87"> <p align="center" class="MsoNormal" style="margin-bottom:0in;text-align:center;   line-height:normal"><span style='font-family:"Times New Roman",serif'>4</span></p> <p align="center" class="MsoNormal" style="margin-bottom:0in;text-align:center;   line-height:normal"><span style='font-family:"Times New Roman",serif'>10.91</span></p> <p align="center" class="MsoNormal" style="margin-bottom:0in;text-align:center;   line-height:normal;text-autospace:none"><span style='font-family:"Times New Roman",serif'>(8.8,   13.6)</span></p> </td> <td style="width:.75in;border-top:none;border-left:none;   border-bottom:solid windowtext 1.0pt;border-right:solid windowtext 1.0pt;   padding:0in 5.4pt 0in 5.4pt;height:37.55pt" valign="top" width="72"> <p align="center" class="MsoNormal" style="margin-bottom:0in;text-align:center;   line-height:normal"><span style='font-family:"Times New Roman",serif'>3/4 </span></p> <p align="center" class="MsoNormal" style="margin-bottom:0in;text-align:center;   line-height:normal"><span style='font-family:"Times New Roman",serif'>(75.0%)<br/>   [19.4, 99.4]</span></p> </td> <td style="width:.9in;border-top:none;border-left:none;   border-bottom:solid windowtext 1.0pt;border-right:solid windowtext 1.0pt;   padding:0in 5.4pt 0in 5.4pt;height:37.55pt" valign="top" width="86"> <p align="center" class="MsoNormal" style="margin-bottom:0in;text-align:center;   line-height:normal"><span style='font-family:"Times New Roman",serif'>3</span></p> <p align="center" class="MsoNormal" style="margin-bottom:0in;text-align:center;   line-height:normal"><span style='font-family:"Times New Roman",serif'>11.35</span></p> <p align="center" class="MsoNormal" style="margin-bottom:0in;text-align:center;   line-height:normal;text-autospace:none"><span style='font-family:"Times New Roman",serif'>(10.5,   13.0)</span></p> </td> <td style="width:.9in;border-top:none;border-left:none;   border-bottom:solid windowtext 1.0pt;border-right:solid windowtext 1.0pt;   padding:0in 5.4pt 0in 5.4pt;height:37.55pt" valign="top" width="86"> <p align="center" class="MsoNormal" style="margin-bottom:0in;text-align:center;   line-height:normal"><span style='font-family:"Times New Roman",serif'>3</span></p> <p align="center" class="MsoNormal" style="margin-bottom:0in;text-align:center;   line-height:normal"><span style='font-family:"Times New Roman",serif'>NR </span></p> <p align="center" class="MsoNormal" style="margin-bottom:0in;text-align:center;   line-height:normal"><span style='font-family:"Times New Roman",serif'>(38.2+,   57.6+)</span></p> </td> </tr> <tr style="height:1.85pt"> <td colspan="7" style="width:443.5pt;border:solid windowtext 1.0pt;   border-top:none;background:#D9D9D9;padding:0in 5.4pt 0in 5.4pt;height:1.85pt" valign="top" width="591"> <p class="MsoNormal" style="margin-bottom:0in;line-height:normal;page-break-after:   avoid"><span style='font-family:"Times New Roman",serif;color:black'>HGB-204</span></p> </td> </tr> <tr style="height:37.4pt"> <td style="width:.9in;border:solid windowtext 1.0pt;   border-top:none;padding:0in 5.4pt 0in 5.4pt;height:37.4pt" valign="top" width="86"> <p align="center" class="MsoNormal" style="margin-bottom:0in;text-align:center;   line-height:normal"><span style='font-family:"Times New Roman",serif'>10</span></p> <p align="center" class="MsoNormal" style="margin-bottom:0in;text-align:center;   line-height:normal"><span style='font-family:"Times New Roman",serif'>4.153</span></p> <p align="center" class="MsoNormal" style="margin-bottom:0in;text-align:center;   line-height:normal;text-autospace:none"><span style='font-family:"Times New Roman",serif'>(1.03,   8.52)</span></p> </td> <td style="width:.9in;border-top:none;border-left:none;   border-bottom:solid windowtext 1.0pt;border-right:solid windowtext 1.0pt;   padding:0in 5.4pt 0in 5.4pt;height:37.4pt" valign="top" width="86"> <p align="center" class="MsoNormal" style="margin-bottom:0in;text-align:center;   line-height:normal"><span style='font-family:"Times New Roman",serif'>10</span></p> <p align="center" class="MsoNormal" style="margin-bottom:0in;text-align:center;   line-height:normal"><span style='font-family:"Times New Roman",serif'>5.418</span></p> <p align="center" class="MsoNormal" style="margin-bottom:0in;text-align:center;   line-height:normal;text-autospace:none"><span style='font-family:"Times New Roman",serif'>(1.10,   9.60)</span></p> </td> <td style="width:.9in;border-top:none;border-left:none;   border-bottom:solid windowtext 1.0pt;border-right:solid windowtext 1.0pt;   padding:0in 5.4pt 0in 5.4pt;height:37.4pt" valign="top" width="86"> <p align="center" class="MsoNormal" style="margin-bottom:0in;text-align:center;   line-height:normal"><span style='font-family:"Times New Roman",serif'>7</span></p> <p align="center" class="MsoNormal" style="margin-bottom:0in;text-align:center;   line-height:normal;text-autospace:none"><span style='font-family:"Times New Roman",serif'>9.20</span></p> <p align="center" class="MsoNormal" style="margin-bottom:0in;text-align:center;   line-height:normal;text-autospace:none"><span style='font-family:"Times New Roman",serif'>(7.7,   13.3)</span></p> </td> <td style="width:65.5pt;border-top:none;border-left:none;   border-bottom:solid windowtext 1.0pt;border-right:solid windowtext 1.0pt;   padding:0in 5.4pt 0in 5.4pt;height:37.4pt" valign="top" width="87"> <p align="center" class="MsoNormal" style="margin-bottom:0in;text-align:center;   line-height:normal"><span style='font-family:"Times New Roman",serif'>8</span></p> <p align="center" class="MsoNormal" style="margin-bottom:0in;text-align:center;   line-height:normal"><span style='font-family:"Times New Roman",serif'>10.35</span></p> <p align="center" class="MsoNormal" style="margin-bottom:0in;text-align:center;   line-height:normal;text-autospace:none"><span style='font-family:"Times New Roman",serif'>(9.1,   13.7)</span></p> </td> <td style="width:.75in;border-top:none;border-left:none;   border-bottom:solid windowtext 1.0pt;border-right:solid windowtext 1.0pt;   padding:0in 5.4pt 0in 5.4pt;height:37.4pt" valign="top" width="72"> <p align="center" class="MsoNormal" style="margin-bottom:0in;text-align:center;   line-height:normal"><span style='font-family:"Times New Roman",serif'>8/10   (80.0%)</span></p> <p align="center" class="MsoNormal" style="margin-bottom:0in;text-align:center;   line-height:normal;text-autospace:none"><span style='font-family:"Times New Roman",serif'>[44.4,   97.5]</span></p> </td> <td style="width:.9in;border-top:none;border-left:none;   border-bottom:solid windowtext 1.0pt;border-right:solid windowtext 1.0pt;   padding:0in 5.4pt 0in 5.4pt;height:37.4pt" valign="top" width="86"> <p align="center" class="MsoNormal" style="margin-bottom:0in;text-align:center;   line-height:normal"><span style='font-family:"Times New Roman",serif'>8</span></p> <p align="center" class="MsoNormal" style="margin-bottom:0in;text-align:center;   line-height:normal"><span style='font-family:"Times New Roman",serif'>10.27</span></p> <p align="center" class="MsoNormal" style="margin-bottom:0in;text-align:center;   line-height:normal;text-autospace:none"><span style='font-family:"Times New Roman",serif'>(9.3,   13.3)</span></p> </td> <td style="width:.9in;border-top:none;border-left:none;   border-bottom:solid windowtext 1.0pt;border-right:solid windowtext 1.0pt;   padding:0in 5.4pt 0in 5.4pt;height:37.4pt" valign="top" width="86"> <p align="center" class="MsoNormal" style="margin-bottom:0in;text-align:center;   line-height:normal"><span style='font-family:"Times New Roman",serif'>8</span></p> <p align="center" class="MsoNormal" style="margin-bottom:0in;text-align:center;   line-height:normal"><span style='font-family:"Times New Roman",serif'>NR </span></p> <p align="center" class="MsoNormal" style="margin-bottom:0in;text-align:center;   line-height:normal"><span style='font-family:"Times New Roman",serif'>(28.3+,   51.3+)</span></p> </td> </tr> <tr style="height:5.3pt"> <td colspan="7" style="width:443.5pt;border:solid windowtext 1.0pt;   border-top:none;background:#D9D9D9;padding:0in 5.4pt 0in 5.4pt;height:5.3pt" valign="top" width="591"> <p class="MsoNormal" style="margin-bottom:0in;line-height:normal;page-break-after:   avoid"><span style='font-family:"Times New Roman",serif;color:black'>HGB-207</span></p> </td> </tr> <tr style="height:37.4pt"> <td style="width:.9in;border:solid windowtext 1.0pt;   border-top:none;padding:0in 5.4pt 0in 5.4pt;height:37.4pt" valign="top" width="86"> <p align="center" class="MsoNormal" style="margin-bottom:0in;text-align:center;   line-height:normal"><span style='font-family:"Times New Roman",serif'>13</span></p> <p align="center" class="MsoNormal" style="margin-bottom:0in;text-align:center;   line-height:normal"><span style='font-family:"Times New Roman",serif'>9.324</span></p> <p align="center" class="MsoNormal" style="margin-bottom:0in;text-align:center;   line-height:normal;text-autospace:none"><span style='font-family:"Times New Roman",serif'>(3.35,   10.60)</span></p> </td> <td style="width:.9in;border-top:none;border-left:none;   border-bottom:solid windowtext 1.0pt;border-right:solid windowtext 1.0pt;   padding:0in 5.4pt 0in 5.4pt;height:37.4pt" valign="top" width="86"> <p align="center" class="MsoNormal" style="margin-bottom:0in;text-align:center;   line-height:normal;text-autospace:none"><span style='font-family:"Times New Roman",serif'>3</span></p> <p align="center" class="MsoNormal" style="margin-bottom:0in;text-align:center;   line-height:normal;text-autospace:none"><span style='font-family:"Times New Roman",serif'>8.766</span></p> <p align="center" class="MsoNormal" style="margin-bottom:0in;text-align:center;   line-height:normal;text-autospace:none"><span style='font-family:"Times New Roman",serif'>(0.89,   11.40)</span></p> </td> <td style="width:.9in;border-top:none;border-left:none;   border-bottom:solid windowtext 1.0pt;border-right:solid windowtext 1.0pt;   padding:0in 5.4pt 0in 5.4pt;height:37.4pt" valign="top" width="86"> <p align="center" class="MsoNormal" style="margin-bottom:0in;text-align:center;   line-height:normal"><span style='font-family:"Times New Roman",serif'>15</span></p> <p align="center" class="MsoNormal" style="margin-bottom:0in;text-align:center;   line-height:normal"><span style='font-family:"Times New Roman",serif'>11.80</span></p> <p align="center" class="MsoNormal" style="margin-bottom:0in;text-align:center;   line-height:normal;text-autospace:none"><span style='font-family:"Times New Roman",serif'>(8.4,   13.3)</span></p> </td> <td style="width:65.5pt;border-top:none;border-left:none;   border-bottom:solid windowtext 1.0pt;border-right:solid windowtext 1.0pt;   padding:0in 5.4pt 0in 5.4pt;height:37.4pt" valign="top" width="87"> <p align="center" class="MsoNormal" style="margin-bottom:0in;text-align:center;   line-height:normal;text-autospace:none"><span style='font-family:"Times New Roman",serif'>2</span></p> <p align="center" class="MsoNormal" style="margin-bottom:0in;text-align:center;   line-height:normal;text-autospace:none"><span style='font-family:"Times New Roman",serif'>12.85</span></p> <p align="center" class="MsoNormal" style="margin-bottom:0in;text-align:center;   line-height:normal;text-autospace:none"><span style='font-family:"Times New Roman",serif'>(12.5,   13.2)</span></p> </td> <td style="width:.75in;border-top:none;border-left:none;   border-bottom:solid windowtext 1.0pt;border-right:solid windowtext 1.0pt;   padding:0in 5.4pt 0in 5.4pt;height:37.4pt" valign="top" width="72"> <p align="center" class="MsoNormal" style="margin-bottom:0in;text-align:center;   line-height:normal"><span style='font-family:"Times New Roman",serif'>9/10</span></p> <p align="center" class="MsoNormal" style="margin-bottom:0in;text-align:center;   line-height:normal"><span style='font-family:"Times New Roman",serif'>(90.0%)<br/>   [55.5, 99.7]</span></p> </td> <td style="width:.9in;border-top:none;border-left:none;   border-bottom:solid windowtext 1.0pt;border-right:solid windowtext 1.0pt;   padding:0in 5.4pt 0in 5.4pt;height:37.4pt" valign="top" width="86"> <p align="center" class="MsoNormal" style="margin-bottom:0in;text-align:center;   line-height:normal"><span style='font-family:"Times New Roman",serif'>9</span></p> <p align="center" class="MsoNormal" style="margin-bottom:0in;text-align:center;   line-height:normal"><span style='font-family:"Times New Roman",serif'>12.22</span></p> <p align="center" class="MsoNormal" style="margin-bottom:0in;text-align:center;   line-height:normal;text-autospace:none"><span style='font-family:"Times New Roman",serif'>(11.4,   12.8)</span></p> </td> <td style="width:.9in;border-top:none;border-left:none;   border-bottom:solid windowtext 1.0pt;border-right:solid windowtext 1.0pt;   padding:0in 5.4pt 0in 5.4pt;height:37.4pt" valign="top" width="86"> <p align="center" class="MsoNormal" style="margin-bottom:0in;text-align:center;   line-height:normal"><span style='font-family:"Times New Roman",serif'>9</span></p> <p align="center" class="MsoNormal" style="margin-bottom:0in;text-align:center;   line-height:normal"><span style='font-family:"Times New Roman",serif'>NR</span></p> <p align="center" class="MsoNormal" style="margin-bottom:0in;text-align:center;   line-height:normal"><span style='font-family:"Times New Roman",serif'>(12.1+,   21.3+)</span></p> </td> </tr> <tr style="height:.2in"> <td colspan="7" style="width:443.5pt;border:solid windowtext 1.0pt;   border-top:none;background:#D9D9D9;padding:0in 5.4pt 0in 5.4pt;height:.2in" width="591"> <p class="MsoNormal" style="margin-bottom:0in;line-height:normal;page-break-after:   avoid"><span style='font-family:"Times New Roman",serif;color:black'>HGB-212</span></p> </td> </tr> <tr style="height:37.4pt"> <td style="width:.9in;border:solid windowtext 1.0pt;   border-top:none;padding:0in 5.4pt 0in 5.4pt;height:37.4pt" valign="top" width="86"> <p align="center" class="MsoNormal" style="margin-bottom:0in;text-align:center;   line-height:normal"><span style='font-family:"Times New Roman",serif'>3</span></p> <p align="center" class="MsoNormal" style="margin-bottom:0in;text-align:center;   line-height:normal"><span style='font-family:"Times New Roman",serif'>10.094</span></p> <p align="center" class="MsoNormal" style="margin-bottom:0in;text-align:center;   line-height:normal"><span style='font-family:"Times New Roman",serif'>(5.06,   10.33)</span></p> </td> <td style="width:.9in;border-top:none;border-left:none;   border-bottom:solid windowtext 1.0pt;border-right:solid windowtext 1.0pt;   padding:0in 5.4pt 0in 5.4pt;height:37.4pt" valign="top" width="86"> <p align="center" class="MsoNormal" style="margin-bottom:0in;text-align:center;   line-height:normal;text-autospace:none"><span style='font-family:"Times New Roman",serif'>NA***</span></p> </td> <td style="width:.9in;border-top:none;border-left:none;   border-bottom:solid windowtext 1.0pt;border-right:solid windowtext 1.0pt;   padding:0in 5.4pt 0in 5.4pt;height:37.4pt" valign="top" width="86"> <p align="center" class="MsoNormal" style="margin-bottom:0in;text-align:center;   line-height:normal"><span style='font-family:"Times New Roman",serif'>3</span></p> <p align="center" class="MsoNormal" style="margin-bottom:0in;text-align:center;   line-height:normal"><span style='font-family:"Times New Roman",serif'>12.10</span></p> <p align="center" class="MsoNormal" style="margin-bottom:0in;text-align:center;   line-height:normal"><span style='font-family:"Times New Roman",serif'>(8.5,   12.2)</span></p> </td> <td style="width:65.5pt;border-top:none;border-left:none;   border-bottom:solid windowtext 1.0pt;border-right:solid windowtext 1.0pt;   padding:0in 5.4pt 0in 5.4pt;height:37.4pt" valign="top" width="87"> <p align="center" class="MsoNormal" style="margin-bottom:0in;text-align:center;   line-height:normal;text-autospace:none"><span style='font-family:"Times New Roman",serif'>NA***</span></p> </td> <td style="width:.75in;border-top:none;border-left:none;   border-bottom:solid windowtext 1.0pt;border-right:solid windowtext 1.0pt;   padding:0in 5.4pt 0in 5.4pt;height:37.4pt" valign="top" width="72"> <p align="center" class="MsoNormal" style="margin-bottom:0in;text-align:center;   line-height:normal"><span style='font-family:"Times New Roman",serif'>NA***</span></p> </td> <td style="width:.9in;border-top:none;border-left:none;   border-bottom:solid windowtext 1.0pt;border-right:solid windowtext 1.0pt;   padding:0in 5.4pt 0in 5.4pt;height:37.4pt" valign="top" width="86"> <p align="center" class="MsoNormal" style="margin-bottom:0in;text-align:center;   line-height:normal"><span style='font-family:"Times New Roman",serif'>NA***</span></p> </td> <td style="width:.9in;border-top:none;border-left:none;   border-bottom:solid windowtext 1.0pt;border-right:solid windowtext 1.0pt;   padding:0in 5.4pt 0in 5.4pt;height:37.4pt" valign="top" width="86"> <p align="center" class="MsoNormal" style="margin-bottom:0in;text-align:center;   line-height:normal"><span style='font-family:"Times New Roman",serif'>NA***</span></p> </td> </tr> </table><p class="MsoNormal" style="margin-bottom:0in;line-height:normal;text-autospace: none"><span style='font-family:"Times New Roman",serif;color:white'>*Patients who have not received transfusions in the prior 60 days. </span></p><p class="MsoNormal" style="margin-bottom:0in;line-height:normal;text-autospace: none"><span style='font-family:"Times New Roman",serif'>**Transfusion independence (TI): a weighted average Hb 9 g/dL without any RBC transfusions for a continuous period of 12 months at any time during the study after medicinal product infusion.</span></p><p class="MsoNormal" style="margin-bottom:0in;line-height:normal;text-autospace: none"><span style='font-family:"Times New Roman",serif'>***No patients are currently evaluable for these endpoints.  </span></p><p class="MsoNormal" style="margin-bottom:0in;line-height:normal;text-autospace: none"><span style='font-family:"Times New Roman",serif'>N^ represents the total number of patients evaluable for TI, defined as patients who have completed their parent study (i.e., 24 months of followup), or achieved TI, or will not achieve TI in their parent study. </span></p><p class="Default"><span style="font-size:11.0pt">NR = Not reached. NA = Not applicable. Hb = Total Hb. WA Hb = Weighted average Hb.</span></p><p class="C-BodyText" style="margin:0in;line-height:normal"></p><p class="C-BodyText" style="margin:0in;line-height:normal"><u><span style="font-size:11.0pt">Paediatric population</span></u></p><p class="C-BodyText" style="margin:0in;line-height:normal"><u><span style="font-size:11.0pt"></span></u></p><p class="C-BodyText" style="margin:0in;line-height:normal"><span style="font-size:11.0pt">The European Medicines Agency has deferred the obligation to submit the results of studies with Zynteglo in one or more subsets of the paediatric population in thalassaemia (see section 4.2 for information on paediatric use).</span></p><p class="C-BodyText" style="margin:0in;line-height:normal"></p><p class="C-BodyText" style="margin:0in;line-height:normal"><span style="font-size:11.0pt">This medicinal product has been authorised under a so-called conditional approval scheme. This means that further evidence on this medicinal product is awaited. The European Medicines Agency will review new information on this medicinal product at least every year and this SmPC will be updated as necessary.</span></p><p class="C-BodyText" style="margin:0in;line-height:normal"></p>
			</div>
		</text>
		
    	    
		
</section>
			    
    	    

			    
		               
<section>
			<title value="5.2     Pharmacokinetic properties"/>
				<code>
					<coding>
						<system value="http://spor.ema.europa.eu/v1/example-sections"/>
						<code value="${document[n].section[n].subsection[n].typeCode}"/>
						<display value="${document[n].section[n].subsection[n].typeDisplay}"/>
					</coding>
				</code>
		<text>
			<status value="additional"/>
			<div xmlns="http://www.w3.org/1999/xhtml">
		    <p class="MsoNormal" style="margin-bottom:0in;line-height:normal"></p><p class="C-BodyText" style="margin:0in;line-height:normal"><span style="font-size:11.0pt">Zynteglo is an autologous gene therapy medicinal product consisting of autologous cells that have been genetically modified <i>ex vivo</i>. The nature of Zynteglo is such that conventional studies on pharmacokinetics, absorption, distribution, metabolism, and elimination are not applicable.<a name="_Hlk500249629"></a></span></p><p class="C-BodyText" style="margin:0in;line-height:normal"></p>
			</div>
		</text>
		
    	    
		
</section>
			    
    	    

			    
		               
<section>
			<title value="5.3     Preclinical safety data"/>
				<code>
					<coding>
						<system value="http://spor.ema.europa.eu/v1/example-sections"/>
						<code value="${document[n].section[n].subsection[n].typeCode}"/>
						<display value="${document[n].section[n].subsection[n].typeDisplay}"/>
					</coding>
				</code>
		<text>
			<status value="additional"/>
			<div xmlns="http://www.w3.org/1999/xhtml">
		    <p class="MsoNormal" style="margin-bottom:0in;line-height:normal"></p><p class="C-BodyText" style="margin:0in;line-height:normal"><span style="font-size:11.0pt">Conventional mutagenicity, carcinogenicity and reproductive and developmental toxicity studies have not been conducted.</span></p><p class="C-BodyText" style="margin:0in;line-height:normal"></p><p class="C-BodyText" style="margin:0in;line-height:normal"><span style="font-size:11.0pt">The pharmacology, toxicology and genotoxicity of the BB305 LVV used for transduction in the manufacture of Zynteglo were evaluated <i>in vitro</i> and <i>in vivo</i>. An <i>in vitro</i> immortalisation (IVIM) assay conducted with BB305 LVVtransduced mouse bone marrow cells (BMCs) showed minimal mutagenic potential (Fitness Score  0.1  10<sup>-4</sup>). Insertion site analysis (ISA) of pre-transplantation transduced mouse BMCs and human CD34<sup>+</sup> HSCs showed no enrichment for insertion in or near cancer-related genes. A pharmacology, biodistribution, toxicity and genotoxicity study was conducted in a mouse model of thalassaemia. In this study, there was no evidence of toxicity, genotoxicity or oncogenesis (tumorigenicity) related to BB305 LVV integration, and no toxicity related to production of <sup>AT87Q</sup>globin. ISA of post-transplantation BMCs demonstrated no preferred integration in the proximity of or within genes associated clinically (for gamma retroviral vectors) with either clonal dominance or leukaemia, and no evidence of clonal dominance was observed. Additional studies with human CD34<sup>+</sup> HSCs administered to immunodeficient, myeloablated mice demonstrated no toxicity, tumorigenicity or genotoxicity.</span></p><p class="C-BodyText" style="margin:0in;line-height:normal"></p><p class="C-BodyText" style="margin:0in;line-height:normal"></p>
			</div>
		</text>
		
    	    
		
</section>
			    
    	    
		
</section>
			    
    	    
				
			    
						
		               
<section>
			<title value="6.       PHARMACEUTICAL PARTICULARS"/>
				<code>
					<coding>
						<system value="http://spor.ema.europa.eu/v1/example-sections"/>
						<code value="${document[n].section[n].subsection[n].typeCode}"/>
						<display value="${document[n].section[n].subsection[n].typeDisplay}"/>
					</coding>
				</code>
		<text>
			<status value="additional"/>
			<div xmlns="http://www.w3.org/1999/xhtml">
		    <p class="C-BodyText" style="margin:0in;line-height:normal"></p>
			</div>
		</text>
		
    	    

			    
		               
<section>
			<title value="6.1     List of excipients"/>
				<code>
					<coding>
						<system value="http://spor.ema.europa.eu/v1/example-sections"/>
						<code value="${document[n].section[n].subsection[n].typeCode}"/>
						<display value="${document[n].section[n].subsection[n].typeDisplay}"/>
					</coding>
				</code>
		<text>
			<status value="additional"/>
			<div xmlns="http://www.w3.org/1999/xhtml">
		    <p class="MsoNormal" style="margin-bottom:0in;line-height:normal"></p><p class="C-BodyText" style="margin:0in;line-height:normal"><span style="font-size:11.0pt">Cryostor CS5</span></p><p class="C-BodyText" style="margin:0in;line-height:normal"><span style="font-size:11.0pt">Sodium chloride</span></p><p class="C-BodyText" style="margin:0in;line-height:normal"></p>
			</div>
		</text>
		
    	    
		
</section>
			    
    	    

			    
		               
<section>
			<title value="6.2     Incompatibilities"/>
				<code>
					<coding>
						<system value="http://spor.ema.europa.eu/v1/example-sections"/>
						<code value="${document[n].section[n].subsection[n].typeCode}"/>
						<display value="${document[n].section[n].subsection[n].typeDisplay}"/>
					</coding>
				</code>
		<text>
			<status value="additional"/>
			<div xmlns="http://www.w3.org/1999/xhtml">
		    <p class="MsoNormal" style="margin-bottom:0in;line-height:normal"></p><p class="C-BodyText" style="margin:0in;line-height:normal"><span style="font-size:11.0pt">In the absence of compatibility studies, this medicinal product must not be mixed with other medicinal products.</span></p><p class="C-BodyText" style="margin:0in;line-height:normal"></p>
			</div>
		</text>
		
    	    
		
</section>
			    
    	    

			    
		               
<section>
			<title value="6.3     Shelf life"/>
				<code>
					<coding>
						<system value="http://spor.ema.europa.eu/v1/example-sections"/>
						<code value="${document[n].section[n].subsection[n].typeCode}"/>
						<display value="${document[n].section[n].subsection[n].typeDisplay}"/>
					</coding>
				</code>
		<text>
			<status value="additional"/>
			<div xmlns="http://www.w3.org/1999/xhtml">
		    <p class="MsoNormal" style="margin-bottom:0in;line-height:normal"></p><p class="C-BodyText" style="margin:0in;line-height:normal"><span style="font-size:11.0pt">Frozen: 1 year at -140C.</span></p><p class="C-BodyText" style="margin:0in;line-height:normal"><span style="font-size:11.0pt">Once thawed: maximum 4 hours at room temperature (20C25C).</span></p><p class="C-BodyText" style="margin:0in;line-height:normal"></p>
			</div>
		</text>
		
    	    
		
</section>
			    
    	    

			    
		               
<section>
			<title value="6.4     Special precautions for storage"/>
				<code>
					<coding>
						<system value="http://spor.ema.europa.eu/v1/example-sections"/>
						<code value="${document[n].section[n].subsection[n].typeCode}"/>
						<display value="${document[n].section[n].subsection[n].typeDisplay}"/>
					</coding>
				</code>
		<text>
			<status value="additional"/>
			<div xmlns="http://www.w3.org/1999/xhtml">
		    <p class="MsoNormal" style="margin-bottom:0in;line-height:normal"></p><p class="C-BodyText" style="margin:0in;line-height:normal"><span style="font-size:11.0pt">Store in the vapour phase of liquid nitrogen at -140C until ready for thaw and administration. </span></p><p class="C-BodyText" style="margin:0in;line-height:normal"></p><p class="C-BodyText" style="margin:0in;line-height:normal"><span style="font-size:11.0pt">Keep the infusion bag(s) in the metal cassette(s). </span></p><p class="C-BodyText" style="margin:0in;line-height:normal"></p><p class="C-BodyText" style="margin:0in;line-height:normal"><span style="font-size:11.0pt">Do not re-freeze after thawing.</span></p><p class="C-BodyText" style="margin:0in;line-height:normal"></p>
			</div>
		</text>
		
    	    
		
</section>
			    
    	    

			    
		               
<section>
			<title value="6.5     Nature and contents of container "/>
				<code>
					<coding>
						<system value="http://spor.ema.europa.eu/v1/example-sections"/>
						<code value="${document[n].section[n].subsection[n].typeCode}"/>
						<display value="${document[n].section[n].subsection[n].typeDisplay}"/>
					</coding>
				</code>
		<text>
			<status value="additional"/>
			<div xmlns="http://www.w3.org/1999/xhtml">
		    <p class="MsoNormal" style="margin-bottom:0in;line-height:normal"></p><p class="C-BodyText" style="margin:0in;line-height:normal"><span style="font-size:11.0pt">20 mL fluorinated ethylene propylene infusion bag(s), each packed in a transparent pouch inside a metal cassette. </span></p><p class="C-BodyText" style="margin:0in;line-height:normal"></p><p class="C-BodyText" style="margin:0in;line-height:normal"><span style="font-size:11.0pt">Zynteglo is shipped from the manufacturing facility to the infusion centre storage facility in a cryoshipper, which may contain multiple metal cassettes intended for a single patient. Each metal cassette contains one infusion bag with Zynteglo. A patient may have multiple infusion bags. </span></p><p class="C-BodyText" style="margin:0in;line-height:normal"></p>
			</div>
		</text>
		
    	    
		
</section>
			    
    	    

			    
		               
<section>
			<title value="6.6     Special precautions for disposal and other handling"/>
				<code>
					<coding>
						<system value="http://spor.ema.europa.eu/v1/example-sections"/>
						<code value="${document[n].section[n].subsection[n].typeCode}"/>
						<display value="${document[n].section[n].subsection[n].typeDisplay}"/>
					</coding>
				</code>
		<text>
			<status value="additional"/>
			<div xmlns="http://www.w3.org/1999/xhtml">
		    <p class="MsoNormal" style="margin-bottom:0in;line-height:normal"></p><p class="C-BodyText" style="margin:0in;line-height:normal"><span style="font-size:11.0pt">Irradiation could lead to inactivation of the product.</span></p><p class="C-BodyText" style="margin:0in;line-height:normal"></p><p class="C-BodyText" style="margin:0in;line-height:normal"><i><span style="font-size:11.0pt">Precautions to be taken before handling or administering the medicinal product</span></i></p><p class="C-BodyText" style="margin-top:0in;margin-right:0in;margin-bottom:0in; margin-left:.5in;text-indent:-.25in;line-height:normal"><span style="font-size: 11.0pt;font-family:Symbol"></span><span style="font-size:11.0pt">This medicinal product contains genetically modified human blood cells. Healthcare professionals handling Zynteglo should take appropriate precautions (wearing gloves, protective clothing and eye protection) to avoid potential transmission of infectious diseases.  </span></p><p class="C-BodyText" style="margin:0in;line-height:normal"></p><p class="C-BodyText" style="margin:0in;line-height:normal"><i><span style="font-size:11.0pt">Preparation for the infusion</span></i></p><p class="C-Bullet" style="margin-top:0in;margin-right:0in;margin-bottom:0in; margin-left:.5in;line-height:normal"><span style="font-family:Symbol"></span><span style="font-size:11.0pt">Remove each metal cassette from liquid nitrogen storage and remove each infusion bag from the metal cassette.</span></p><p class="C-Bullet" style="margin-top:0in;margin-right:0in;margin-bottom:0in; margin-left:.5in;line-height:normal"><span style="font-family:Symbol"></span><span style="font-size:11.0pt">Confirm that Zynteglo is printed on the infusion bag(s).</span></p><p class="C-Bullet" style="margin-top:0in;margin-right:0in;margin-bottom:0in; margin-left:.5in;line-height:normal"><span style="font-family:Symbol"></span><span style="font-size:11.0pt">Confirm that patient identity matches the unique patient identification information located on the Zynteglo infusion bag(s). Do not infuse Zynteglo if the information on the patient specificlabel on the infusion bag does not match the intended patient.</span></p><p class="C-Bullet" style="margin-top:0in;margin-right:0in;margin-bottom:0in; margin-left:.5in;line-height:normal"><span style="font-family:Symbol"></span><span style="font-size:11.0pt">Account for all infusion bags and confirm each infusion bag is within the expiry date using the accompanying Lot Information Sheet. </span></p><p class="C-Bullet" style="margin-top:0in;margin-right:0in;margin-bottom:0in; margin-left:.5in;line-height:normal"><span style="font-family:Symbol"></span><span style="font-size:11.0pt">Each infusion bag should be inspected for any breaches of integrity before thawing and infusion. If an infusion bag is compromised, follow the local guidelines and contact bluebird bio immediately.</span></p><p class="C-BodyText" style="margin:0in;line-height:normal"></p><p class="C-BodyText" style="margin:0in;line-height:normal"><i><span style="font-size:11.0pt">Thaw and administration</span></i></p><p class="C-Bullet" style="margin-top:0in;margin-right:0in;margin-bottom:0in; margin-left:.5in;text-indent:-13.5pt;line-height:normal"><span style="font-family:Symbol"></span><span style="font-size:11.0pt">Thaw Zynteglo at 37C in a water bath or dry bath. Thawing of each infusion bag takes approximately 2 to 4 minutes. Do not overthaw the medicinal product. Do not leave the medicinal product unattended and do not submerge the infusion ports if thawed in a water bath.</span></p><p class="C-Bullet" style="margin-top:0in;margin-right:0in;margin-bottom:0in; margin-left:.5in;text-indent:-13.5pt;line-height:normal"><span style="font-family:Symbol"></span><span style="font-size:11.0pt">After thaw, mix the medicinal product gently by massaging the infusion bag until all of the contents are uniform. Expose the sterile port on the infusion bag by tearing off a protective wrap covering the port. </span></p><p class="C-Bullet" style="margin-top:0in;margin-right:0in;margin-bottom:0in; margin-left:.5in;text-indent:-13.5pt;line-height:normal"><span style="font-family:Symbol"></span><span style="font-size:11.0pt">Access the medicinal product infusion bag and infuse per the administration sites standard procedures for administration of cell therapy products. Do not use an in-line blood filter or an infusion pump.</span></p><p class="C-Bullet" style="margin-top:0in;margin-right:0in;margin-bottom:0in; margin-left:.5in;text-indent:-13.5pt;line-height:normal"><span style="font-family:Symbol"></span><span style="font-size:11.0pt">Do not sample, alter, or irradiate the medicinal product.</span></p><p class="C-Bullet" style="margin-top:0in;margin-right:0in;margin-bottom:0in; margin-left:.5in;text-indent:-13.5pt;line-height:normal"><span style="font-family:Symbol"></span><span style="font-size:11.0pt">Administer each infusion bag of Zynteglo via intravenous infusion over a period of less than 30 minutes. If more than one infusion bag is provided, administer each infusion bag completely before proceeding to thaw and infuse the next bag.</span></p><p class="C-Bullet" style="margin-top:0in;margin-right:0in;margin-bottom:0in; margin-left:.5in;text-indent:-13.5pt;line-height:normal"><span style="font-family:Symbol"></span><span style="font-size:11.0pt">Infuse Zynteglo as soon as possible and no more than 4 hours after thawing. Flush all Zynteglo remaining in the infusion bag and any associated tubing with at least 50 mL of 0.9% sodium chloride solution to ensure as many cells as possible are infused into the patient.</span></p><p class="C-BodyText" style="margin:0in;line-height:normal"></p><p class="C-BodyText" style="margin:0in;line-height:normal"><u><span style="font-size:11.0pt">Precautions to be taken for the disposal of the medicinal product</span></u></p><p class="C-BodyText" style="margin:0in;line-height:normal"><u><span style="font-size:11.0pt"></span></u></p><p class="C-BodyText" style="margin:0in;line-height:normal"><span style="font-size:11.0pt">The medicinal product contains geneticallymodified cells. Local guidelines on handling human-derived material should be followed for unused medicinal products or waste material. All material that has been in contact with Zynteglo (solid and liquid waste) should be handled and disposed of as potentially infectious waste in accordance with local guidelines on handling human-derived material. </span></p><p class="C-BodyText" style="margin:0in;line-height:normal"></p><p class="C-BodyText" style="margin:0in;line-height:normal"></p>
			</div>
		</text>
		
    	    
		
</section>
			    
    	    
		
</section>
			    
    	    
				
			    
						
		               
<section>
			<title value="7.       MARKETING AUTHORISATION HOLDER"/>
				<code>
					<coding>
						<system value="http://spor.ema.europa.eu/v1/example-sections"/>
						<code value="${document[n].section[n].subsection[n].typeCode}"/>
						<display value="${document[n].section[n].subsection[n].typeDisplay}"/>
					</coding>
				</code>
		<text>
			<status value="additional"/>
			<div xmlns="http://www.w3.org/1999/xhtml">
		    <p class="MsoNormal" style="margin-top:0in;margin-right:0in;margin-bottom:0in; margin-left:28.35pt;text-indent:-28.35pt;line-height:normal"></p><p class="C-BodyText" style="margin:0in;line-height:normal"><span style="font-size:11.0pt">bluebird bio (Netherlands) B.V.</span></p><p class="C-BodyText" style="margin:0in;line-height:normal"><span lang="EN-GB" style="font-size:11.0pt">Stadsplateau 7</span></p><p class="C-BodyText" style="margin:0in;line-height:normal"><span lang="EN-GB" style="font-size:11.0pt">WTC Utrecht</span></p><p class="C-BodyText" style="margin:0in;line-height:normal"><span lang="EN-GB" style="font-size:11.0pt">3521AZ Utrecht</span></p><p class="C-BodyText" style="margin:0in;line-height:normal"><span lang="EN-GB" style="font-size:11.0pt">The Netherlands</span></p><p class="C-BodyText" style="margin:0in;line-height:normal"></p><p class="C-BodyText" style="margin:0in;line-height:normal"></p>
			</div>
		</text>
		
    	    
		
</section>
			    
    	    
				
			    
						
		               
<section>
			<title value="8.       MARKETING AUTHORISATION NUMBER(S) "/>
				<code>
					<coding>
						<system value="http://spor.ema.europa.eu/v1/example-sections"/>
						<code value="${document[n].section[n].subsection[n].typeCode}"/>
						<display value="${document[n].section[n].subsection[n].typeDisplay}"/>
					</coding>
				</code>
		<text>
			<status value="additional"/>
			<div xmlns="http://www.w3.org/1999/xhtml">
		    <p class="MsoNormal" style="margin-top:0in;margin-right:0in;margin-bottom:0in; margin-left:28.35pt;text-indent:-28.35pt;line-height:normal"></p><p class="MsoNormal" style="margin-top:0in;margin-right:0in;margin-bottom:0in; margin-left:28.35pt;text-indent:-28.35pt;line-height:normal"><span style='font-family:"Times New Roman",serif'>EU/1/19/1367/001</span></p><p class="MsoNormal" style="margin-top:0in;margin-right:0in;margin-bottom:0in; margin-left:28.35pt;text-indent:-28.35pt;line-height:normal"></p><p class="MsoNormal" style="margin-top:0in;margin-right:0in;margin-bottom:0in; margin-left:28.35pt;text-indent:-28.35pt;line-height:normal"></p>
			</div>
		</text>
		
    	    
		
</section>
			    
    	    
				
			    
						
		               
<section>
			<title value="9.       DATE OF FIRST AUTHORISATION/RENEWAL OF THE AUTHORISATION"/>
				<code>
					<coding>
						<system value="http://spor.ema.europa.eu/v1/example-sections"/>
						<code value="${document[n].section[n].subsection[n].typeCode}"/>
						<display value="${document[n].section[n].subsection[n].typeDisplay}"/>
					</coding>
				</code>
		<text>
			<status value="additional"/>
			<div xmlns="http://www.w3.org/1999/xhtml">
		    <p class="MsoNormal" style="margin-top:0in;margin-right:0in;margin-bottom:0in; margin-left:28.35pt;text-indent:-28.35pt;line-height:normal"></p><p class="MsoNormal" style="margin-top:0in;margin-right:0in;margin-bottom:0in; margin-left:28.35pt;text-indent:-28.35pt;line-height:normal"><span style='font-family:"Times New Roman",serif'>Date of first authorisation: 29 May 2019</span></p><p class="MsoNormal" style="margin-top:0in;margin-right:0in;margin-bottom:0in; margin-left:28.35pt;text-indent:-28.35pt;line-height:normal"></p><p class="MsoNormal" style="margin-top:0in;margin-right:0in;margin-bottom:0in; margin-left:28.35pt;text-indent:-28.35pt;line-height:normal"></p>
			</div>
		</text>
		
    	    
		
</section>
			    
    	    
				
			    
						
		               
<section>
			<title value="10.     DATE OF REVISION OF THE TEXT"/>
				<code>
					<coding>
						<system value="http://spor.ema.europa.eu/v1/example-sections"/>
						<code value="${document[n].section[n].subsection[n].typeCode}"/>
						<display value="${document[n].section[n].subsection[n].typeDisplay}"/>
					</coding>
				</code>
		<text>
			<status value="additional"/>
			<div xmlns="http://www.w3.org/1999/xhtml">
		    <p class="MsoNormal" style="margin-bottom:0in;line-height:normal"></p><p class="MsoNormal" style="margin-bottom:0in;line-height:normal"><span style='font-family:"Times New Roman",serif'>{DD month YYYY}</span></p><p class="MsoNormal" style="margin-top:0in;margin-right:-.1pt;margin-bottom:0in; margin-left:0in;line-height:normal"></p><p class="MsoNormal" style="margin-top:0in;margin-right:-.1pt;margin-bottom:0in; margin-left:0in;line-height:normal"><span lang="EN-GB" style='font-family:"Times New Roman",serif'>Detailed information on this medicinal product is available on the website of the European Medicines Agency </span><a href="http://www.ema.europa.eu"><span lang="EN-GB" style='font-family:"Times New Roman",serif'>http://www.ema.europa.eu</span></a><span lang="EN-GB" style='font-family:"Times New Roman",serif'>&lt;, and on the website of {name of MS Agency (link)}&gt;. <br clear="all" style="page-break-before:always"/> </span></p><p class="MsoNormal" style="margin-top:0in;margin-right:-.1pt;margin-bottom:0in; margin-left:0in;line-height:normal"></p><p class="MsoNormal" style="margin-top:0in;margin-right:-.1pt;margin-bottom:0in; margin-left:0in;line-height:normal"></p><p class="MsoNormal" style="margin-top:0in;margin-right:-.1pt;margin-bottom:0in; margin-left:0in;line-height:normal"></p><p class="MsoNormal" style="margin-top:0in;margin-right:-.1pt;margin-bottom:0in; margin-left:0in;line-height:normal"></p><p class="MsoNormal" style="margin-top:0in;margin-right:-.1pt;margin-bottom:0in; margin-left:0in;line-height:normal"></p><p class="MsoNormal" style="margin-top:0in;margin-right:-.1pt;margin-bottom:0in; margin-left:0in;line-height:normal"></p><p class="MsoNormal" style="margin-top:0in;margin-right:-.1pt;margin-bottom:0in; margin-left:0in;line-height:normal"></p><p class="MsoNormal" style="margin-top:0in;margin-right:-.1pt;margin-bottom:0in; margin-left:0in;line-height:normal"></p><p class="MsoNormal" style="margin-top:0in;margin-right:-.1pt;margin-bottom:0in; margin-left:0in;line-height:normal"></p><p class="MsoNormal" style="margin-top:0in;margin-right:-.1pt;margin-bottom:0in; margin-left:0in;line-height:normal"></p><p class="MsoNormal" style="margin-top:0in;margin-right:-.1pt;margin-bottom:0in; margin-left:0in;line-height:normal"></p><p class="MsoNormal" style="margin-top:0in;margin-right:-.1pt;margin-bottom:0in; margin-left:0in;line-height:normal"></p><p class="MsoNormal" style="margin-top:0in;margin-right:-.1pt;margin-bottom:0in; margin-left:0in;line-height:normal"></p><p class="MsoNormal" style="margin-top:0in;margin-right:-.1pt;margin-bottom:0in; margin-left:0in;line-height:normal"></p><p class="MsoNormal" style="margin-top:0in;margin-right:-.1pt;margin-bottom:0in; margin-left:0in;line-height:normal"></p><p class="MsoNormal" style="margin-top:0in;margin-right:-.1pt;margin-bottom:0in; margin-left:0in;line-height:normal"></p><p class="MsoNormal" style="margin-top:0in;margin-right:-.1pt;margin-bottom:0in; margin-left:0in;line-height:normal"></p><p class="MsoNormal" style="margin-top:0in;margin-right:-.1pt;margin-bottom:0in; margin-left:0in;line-height:normal"></p><p class="MsoNormal" style="margin-top:0in;margin-right:-.1pt;margin-bottom:0in; margin-left:27.0pt;text-indent:-27.0pt;line-height:normal"></p><p class="MsoNormal" style="margin-top:0in;margin-right:-.1pt;margin-bottom:0in; margin-left:27.0pt;text-indent:-27.0pt;line-height:normal"></p><p class="MsoNormal" style="margin-top:0in;margin-right:-.1pt;margin-bottom:0in; margin-left:27.0pt;text-indent:-27.0pt;line-height:normal"></p><p class="MsoNormal" style="margin-top:0in;margin-right:-.1pt;margin-bottom:0in; margin-left:27.0pt;text-indent:-27.0pt;line-height:normal"></p><p align="center" class="MsoNormal" style="margin-top:0in;margin-right:-.1pt; margin-bottom:0in;margin-left:27.0pt;text-align:center;text-indent:-27.0pt; line-height:normal"></p>
			</div>
		</text>
		
    	    
		
</section>
			    
    	    
		
	
</section>
							<!-- sections can repeat as necessary -->
						</Composition>
					</resource>
				</entry>
				
			</Bundle>
		</resource>
	</entry>
</Bundle>